Folder: pub-Maffettone_2021_04/constrainednmf/example_data/BaTiO3_xrd_ramp (part 5)

File: BTO_250K_tth.xy
0.000000000000000000e+00 0.000419542
12 0.010274
24 0.010966
36 0.0026682
48 0.00279321
60 0.00294618
72 0.00311294
84 0.0034611
96 0.00344723
108 0.00336221
120 0.00331029
132 0.00327571
144 0.00321826
156 0.00310239
168 0.00300935
180 0.00290109
192 0.00272008
204 0.00263426
216 0.00260316
228 0.00252114
240 0.00256399
252 0.00254009
264 0.00260327
276 0.00281096
288 0.0029938
300 0.00264179
312 0.00252978
324 0.00334876
336 0.0656422
348 0.00202061
360 0.00456487
372 0.00121487
384 0.00123765
396 0.00113821
408 0.00123179
420 0.00157612
432 0.00150175
444 0.00233618
456 0.00477566
468 0.0781967
480 0.0237882
492 0.00348481
504 0.00180737
516 0.00198072
528 0.000431604
540 0.000444699
552 0.000755132
564 0.00173578
576 0.0556227
588 0.00497689
600 0.00141591
612 0.000750959
624 0.00229311
636 0.00185698
648 0.00252047
660 0.0156601
672 0.233767
684 0.00461768
696 0.00232213
708 0.00113246
720 0.000874753
732 0.00149664
744 0.0335801
756 0.0081557
768 0.00103033
780 0.00102841
792 0.00189495
804 0.00526493
816 0.14311
828 0.0243028
840 0.00323547
852 0.00154142
864 0.000932786
876 0.000580118
888 0.000793271
900 0.000696464
912 0.000646453
924 0.00108382
936 0.00636473
948 0.338537
960 0.00516624
972 0.00147394
984 0.00164332
996 0.00514477
1008 0.0557755
1020 0.001358
1032 0.00129193
1044 0.0049601
1056 0.164898
1068 0.0313617
1080 0.00259096
1092 0.00214214
1104 0.0192325
1116 0.0762557
1128 0.0016261
1140 0.00105534
1152 0.00430097
1164 0.0698949
1176 0.00140058
1188 0.000824813
1200 0.00552077
1212 0.0327441
1224 0.00204837
1236 0.00433482
1248 0.0736837
1260 0.0940535
1272 0.00381431
1284 0.0010402
1296 0.000714628
1308 0.000426797
1320 0.00112707
1332 0.00808044
1344 0.0182276
1356 0.00251088
1368 0.00243732
1380 0.0500781
1392 0.00879786
1404 0.00357891
1416 0.0515098
1428 0.0837771
1440 0.00468911
1452 0.005712
1464 0.0623558
1476 0.00314692
1488 0.00967051
1500 0.0939749
1512 0.00923984
1524 0.00410175
1536 0.0374621
1548 0.00453918
1560 0.00328646
1572 0.0766278
1584 0.00420452
1596 0.00157627
1608 0.00102039
1620 0.0017014
1632 0.00619755
1644 0.083937
1656 0.00628306
1668 0.00591452
1680 0.0187203
1692 0.00585202
1704 0.0606681
1716 0.0982837
1728 0.00757077
1740 0.0286054
1752 0.0183186
1764 0.00157666
1776 0.000714976
1788 0.0010504
1800 0.0115256
1812 0.0266384
1824 0.00654892
1836 0.0629394
1848 0.0343757
1860 0.00186697
1872 0.000239464
1884 0.00111378
1896 0.0140413
1908 0.00562419
1920 0.00591507
1932 0.0171733
1944 0.0045877
1956 0.0560644
1968 0.0130652
1980 0.0171699
1992 0.0255486
2004 0.00736305
2016 0.0568658
2028 0.00772813
2040 0.00713044
2052 0.00699839
2064 0.0373669
2076 0.0492074
2088 0.00429614
2100 0.00158978
2112 0.00530659
2124 0.0207557
2136 0.0189873
2148 0.0200886
2160 0.0125965
2172 0.0189102
2184 0.0300333
2196 0.0051058
2208 0.0115208
2220 0.00847868
2232 0.0134429
2244 0.00704579
2256 0.0154221
2268 0.00786254
2280 0.0236768
2292 0.00939052
2304 0.000936183
2316 0.000558214
2328 0.00889766
2340 0.00279916
2352 0.00882617
2364 0.0102031
2376 0.0406235
2388 0.0167208
2400 0.0131992
2412 0.00937849
2424 0.0168878
2436 0.0105467
2448 0.0107971
2460 0.0147521
2472 0.0364733
2484 0.0187817
2496 0.00312118
2508 0.00955923
2520 0.0272995
2532 0.00664449
2544 0.00655194
2556 0.00774663
2568 0.00568521
2580 0.0124022
2592 0.00854068
2604 0.00154165
2616 0.00158289
2628 0.00847215
2640 0.0135796
2652 0.0264287
2664 0.006808
2676 0.000329103
2688 0.00172952
2700 0.00185036
2712 0.0076363
2724 0.0121064
2736 0.0237708
2748 0.012441
2760 0.00518034
2772 0.0128657
2784 0.0116798
2796 0.00721595
2808 0.00737298
2820 0.0151192
2832 0.000663322
2844 0.00130808
2856 0.00716597
2868 0.00737141
2880 0.00458062
2892 0.0170142
2904 0.0177413
2916 0.00940671
2928 0.00629845
2940 0.00917621
2952 0.00550071
2964 0.00548892
2976 0.00816188
2988 0.00313011
3000 0.000240019
3012 0.00464958
3024 0.00692311
3036 0.00697043
3048 0.00854407
3060 0.00722614
3072 0.00885717
3084 0.009905
3096 0.00839727
3108 0.00538729
3120 0.0119385
3132 0.0154224
3144 0.00733251
3156 0.00399729
3168 0.00896221
3180 0.00869044
3192 0.0139137
3204 0.0155425
3216 0.00783917
3228 0.0020693
3240 5.91932e-05
3252 0.00267789
3264 0.00769165
3276 0.00871299
3288 0.00241311
3300 0.0017459
3312 0.00151367
3324 0.00235246
3336 0.00738981
3348 0.00719761
3360 0.00318076
3372 0.00192979
3384 0.00593691
3396 0.00595567
3408 0.00476494
3420 0.000903411
3432 0.00351825
3444 0.00707986
3456 0.0101532
3468 0.00813927
3480 0.00978647
3487 0.00889285

File: BTO_255K_tth.xy
0.000000000000000000e+00 3.3223e-05
12 0.00969795
24 0.0109064
36 0.0026663
48 0.00283597
60 0.00296561
72 0.00316901
84 0.00347953
96 0.00337946
108 0.0032538
120 0.00318026
132 0.00304699
144 0.0028477
156 0.00281555
168 0.00262113
180 0.00252143
192 0.00231165
204 0.0021999
216 0.00207946
228 0.00207312
240 0.00191879
252 0.00203527
264 0.00205864
276 0.00217841
288 0.00245592
300 0.00221645
312 0.00205272
324 0.00289584
336 0.0648551
348 0.00156804
360 0.00421329
372 0.000874812
384 0.000702392
396 0.000754752
408 0.000774635
420 0.00123837
432 0.00122799
444 0.00216159
456 0.00462295
468 0.0783761
480 0.0234812
492 0.00320277
504 0.00161699
516 0.00185391
528 0.000318367
540 0.000302095
552 0.000407818
564 0.00144967
576 0.0558861
588 0.0049087
600 0.000882083
612 0.000542603
624 0.0019706
636 0.00134674
648 0.00220334
660 0.0155845
672 0.23769
684 0.00424498
696 0.00195991
708 0.000779443
720 0.000581229
732 0.00113685
744 0.0336903
756 0.00773693
768 0.000682154
780 0.000626689
792 0.00146886
804 0.00486018
816 0.144718
828 0.0235314
840 0.00282071
852 0.000848444
864 0.000579606
876 0.000236132
888 0.000567358
900 0.000118571
912 0.000465168
924 0.000904603
936 0.00653553
948 0.338298
960 0.00474353
972 0.00133061
984 0.00115944
996 0.00488628
1008 0.0548323
1020 0.00127284
1032 0.00125123
1044 0.00490101
1056 0.163982
1068 0.0303701
1080 0.00238122
1092 0.0021576
1104 0.0195949
1116 0.0756739
1128 0.00162038
1140 0.000991712
1152 0.00390601
1164 0.06798
1176 0.00124783
1188 0.000550416
1200 0.00543765
1212 0.0323788
1224 0.00172462
1236 0.00418964
1248 0.0741738
1260 0.0909322
1272 0.0034295
1284 0.000952482
1296 0.000189712
1308 0.000430043
1320 0.000516725
1332 0.00812923
1344 0.0186739
1356 0.00214901
1368 0.00215352
1380 0.0490614
1392 0.00805408
1404 0.00318585
1416 0.0513582
1428 0.0843646
1440 0.00379067
1452 0.00490744
1464 0.0607861
1476 0.00270527
1488 0.00912724
1500 0.0924403
1512 0.00823793
1524 0.00343004
1536 0.0363223
1548 0.00373171
1560 0.00225085
1572 0.077174
1584 0.00352458
1596 0.000759626
1608 0.000342788
1620 0.000627254
1632 0.00566717
1644 0.0832661
1656 0.00521308
1668 0.005451
1680 0.0177904
1692 0.00512769
1704 0.059855
1716 0.0971548
1728 0.00697461
1740 0.0274509
1752 0.0180185
1764 0.000722932
1776 0.000116382
1788 0.000781452
1800 0.0109365
1812 0.0257365
1824 0.0064969
1836 0.0614144
1848 0.0323756
1860 0.00154362
1872 0.000143335
1884 0.000915181
1896 0.0143625
1908 0.00530803
1920 0.00577509
1932 0.0166067
1944 0.00412464
1956 0.0560329
1968 0.0123815
1980 0.0168684
1992 0.0258766
2004 0.00727765
2016 0.0564736
2028 0.00760383
2040 0.00661609
2052 0.00715197
2064 0.0374661
2076 0.0492631
2088 0.00416577
2100 0.00146982
2112 0.00531025
2124 0.0202397
2136 0.0186023
2148 0.0199249
2160 0.0128494
2172 0.0188383
2184 0.0288668
2196 0.00492029
2208 0.0113196
2220 0.00861514
2232 0.0132636
2244 0.00651381
2256 0.0153264
2268 0.0076847
2280 0.0229975
2292 0.00842872
2304 0.000368366
2316 0.000283945
2328 0.00856894
2340 0.00198685
2352 0.00870126
2364 0.00965609
2376 0.0401645
2388 0.0165336
2400 0.0123702
2412 0.00919188
2424 0.0158179
2436 0.00964845
2448 0.0102832
2460 0.0142965
2472 0.0355462
2484 0.0177269
2496 0.00254872
2508 0.00939198
2520 0.026468
2532 0.00604656
2544 0.00585027
2556 0.00671068
2568 0.0055026
2580 0.0116486
2592 0.00839973
2604 0.00038974
2616 0.00129148
2628 0.00815374
2640 0.0132425
2652 0.0264092
2664 0.00635415
2676 0.00047502
2688 0.00126198
2700 0.00245247
2712 0.00773192
2724 0.0116905
2736 0.0234129
2748 0.0124391
2760 0.00486651
2772 0.0135856
2784 0.0121694
2796 0.00761145
2808 0.00763527
2820 0.0152881
2832 0.00111438
2844 0.00194206
2856 0.00837924
2868 0.00866325
2880 0.00565791
2892 0.0174346
2904 0.0189568
2916 0.0101587
2928 0.00756994
2940 0.00925387
2952 0.00576897
2964 0.00615158
2976 0.00977599
2988 0.00447457
3000 0.00204367
3012 0.00479138
3024 0.0072862
3036 0.00762002
3048 0.00742758
3060 0.00656085
3072 0.00808039
3084 0.00843333
3096 0.00758253
3108 0.00517371
3120 0.0104848
3132 0.0152313
3144 0.00542777
3156 0.00308062
3168 0.00906804
3180 0.00596724
3192 0.0125334
3204 0.0151987
3216 0.00739511
3228 0.00237298
3240 0.00115335
3252 0.000809576
3264 0.00636586
3276 0.00681854
3288 0.00253168
3300 0.00186897
3312 0.00188257
3324 0.00241997
3336 0.00687129
3348 0.00966513
3360 0.00534961
3372 0.00517363
3384 0.00685617
3396 0.00547306
3408 0.00490307
3420 0.00599181
3432 0.00800979
3444 0.0083094
3456 0.0107004
3468 0.00757019
3480 0.00847461
3487 0.000488481

File: BTO_260K_tth.xy
0.000000000000000000e+00 0.00048989
12 0.0105029
24 0.0112536
36 0.002963
48 0.00312684
60 0.00327891
72 0.00343745
84 0.00375389
96 0.00373175
108 0.0036227
120 0.00352809
132 0.00341984
144 0.00339578
156 0.00317634
168 0.0030738
180 0.0028798
192 0.00281052
204 0.00263558
216 0.00253027
228 0.00247297
240 0.00244199
252 0.00244282
264 0.0025207
276 0.0026403
288 0.00295937
300 0.0026099
312 0.00247224
324 0.00336839
336 0.0651038
348 0.00192822
360 0.00466181
372 0.00124619
384 0.00109713
396 0.00107866
408 0.0012453
420 0.0015743
432 0.00151184
444 0.00238416
456 0.00488322
468 0.0790726
480 0.0236468
492 0.00359768
504 0.00197544
516 0.00207463
528 0.0006625
540 0.000627144
552 0.000848194
564 0.00181337
576 0.0568225
588 0.0050822
600 0.00136041
612 0.00083662
624 0.00213599
636 0.00187524
648 0.00252042
660 0.0160267
672 0.241947
684 0.00470277
696 0.00243284
708 0.00125984
720 0.000917935
732 0.00182416
744 0.0345093
756 0.00810839
768 0.00137589
780 0.00114733
792 0.00202449
804 0.00536253
816 0.14662
828 0.0239002
840 0.00319834
852 0.0014141
864 0.000906856
876 0.000545277
888 0.000880779
900 0.000616215
912 0.000707403
924 0.00142757
936 0.00667881
948 0.338402
960 0.00502569
972 0.00189827
984 0.00173244
996 0.0052387
1008 0.0547575
1020 0.00156359
1032 0.00155219
1044 0.00522211
1056 0.163277
1068 0.0295408
1080 0.00293427
1092 0.00266389
1104 0.0204668
1116 0.075404
1128 0.00214707
1140 0.0012109
1152 0.00433327
1164 0.0665004
1176 0.00185987
1188 0.00091855
1200 0.00582461
1212 0.0328434
1224 0.00236241
1236 0.00450486
1248 0.0751867
1260 0.0890124
1272 0.00401403
1284 0.00112775
1296 0.000546583
1308 0.000540463
1320 0.00108588
1332 0.00877118
1344 0.0189598
1356 0.00225958
1368 0.00244941
1380 0.0492651
1392 0.00809004
1404 0.00364875
1416 0.0522605
1428 0.0851684
1440 0.004166
1452 0.00548751
1464 0.0601607
1476 0.00316142
1488 0.0102682
1500 0.091859
1512 0.00867841
1524 0.00384819
1536 0.0362266
1548 0.00396821
1560 0.00265079
1572 0.0781086
1584 0.00413748
1596 0.00125964
1608 0.000815102
1620 0.00149082
1632 0.006386
1644 0.0835825
1656 0.0060159
1668 0.00570391
1680 0.0185221
1692 0.00576415
1704 0.0608743
1716 0.0969283
1728 0.00725056
1740 0.0277415
1752 0.0184828
1764 0.00119611
1776 0.00104054
1788 0.00119007
1800 0.0118488
1812 0.0259893
1824 0.00685687
1836 0.0609675
1848 0.0313056
1860 0.00218569
1872 0.000813741
1884 0.000967692
1896 0.0145915
1908 0.00571591
1920 0.00627478
1932 0.0170034
1944 0.0050343
1956 0.0562495
1968 0.0122425
1980 0.0174462
1992 0.0262422
2004 0.00799456
2016 0.0568524
2028 0.00758503
2040 0.00729535
2052 0.00808163
2064 0.0375034
2076 0.0493237
2088 0.00440295
2100 0.00192417
2112 0.00543906
2124 0.0203412
2136 0.0180263
2148 0.0198445
2160 0.0133022
2172 0.0198627
2184 0.0285129
2196 0.00580329
2208 0.0113113
2220 0.00899917
2232 0.0139198
2244 0.00666566
2256 0.0154
2268 0.007974
2280 0.0231389
2292 0.00845953
2304 0.000991282
2316 0.000841628
2328 0.00922376
2340 0.00238135
2352 0.00898191
2364 0.0102126
2376 0.0412443
2388 0.0175169
2400 0.0129331
2412 0.0101579
2424 0.0164798
2436 0.00991177
2448 0.0111151
2460 0.0150513
2472 0.0362199
2484 0.0179794
2496 0.00342694
2508 0.00991069
2520 0.027503
2532 0.00646746
2544 0.00619854
2556 0.00732455
2568 0.0063169
2580 0.0126513
2592 0.00899273
2604 0.00126672
2616 0.00217512
2628 0.0084567
2640 0.0136066
2652 0.0263537
2664 0.00641663
2676 0.000604332
2688 0.00219375
2700 0.00293944
2712 0.00827887
2724 0.0118856
2736 0.0236119
2748 0.0126369
2760 0.00468332
2772 0.0125933
2784 0.012011
2796 0.00677621
2808 0.0081914
2820 0.0149219
2832 0.0007116
2844 0.0017131
2856 0.00804462
2868 0.00748494
2880 0.00592699
2892 0.0169737
2904 0.0186535
2916 0.00892121
2928 0.00555095
2940 0.00890371
2952 0.00548457
2964 0.00524974
2976 0.00795522
2988 0.00255099
3000 0.000559698
3012 0.00374924
3024 0.00666186
3036 0.00602587
3048 0.00711711
3060 0.00702271
3072 0.00801109
3084 0.00933939
3096 0.00736997
3108 0.00476696
3120 0.00973146
3132 0.0147921
3144 0.00557877
3156 0.0035065
3168 0.00849948
3180 0.00714853
3192 0.0133858
3204 0.0147721
3216 0.00539875
3228 0.00165036
3240 0.000656339
3252 0.00216425
3264 0.0072557
3276 0.00963692
3288 0.00400953
3300 0.0023772
3312 0.0023431
3324 0.00338879
3336 0.00601399
3348 0.00942203
3360 0.00528449
3372 0.00301507
3384 0.00824957
3396 0.00475147
3408 0.00434925
3420 0.000412048
3432 0.00427693
3444 0.00779323
3456 0.00925229
3468 0.0156445
3480 0.0124071
3487 0.000446319

File: BTO_265K_tth.xy
0.000000000000000000e+00 0.00108325
12 0.0112191
24 0.0120187
36 0.00377758
48 0.00394721
60 0.00416338
72 0.00429207
84 0.00455231
96 0.00448258
108 0.00434491
120 0.00418873
132 0.00410086
144 0.00393723
156 0.00370443
168 0.00357764
180 0.00343387
192 0.00328416
204 0.00306828
216 0.00299047
228 0.00296758
240 0.00291625
252 0.00295476
264 0.00293885
276 0.00307613
288 0.0034238
300 0.00306635
312 0.00286698
324 0.00380884
336 0.0655004
348 0.00245565
360 0.00513872
372 0.0017823
384 0.00169654
396 0.0017859
408 0.00178398
420 0.00212572
432 0.00215951
444 0.00300432
456 0.00551316
468 0.0796232
480 0.0240293
492 0.00421625
504 0.00266956
516 0.00266153
528 0.00121562
540 0.0013069
552 0.00144481
564 0.00241549
576 0.0577255
588 0.00577347
600 0.00196512
612 0.00157074
624 0.00285086
636 0.00242811
648 0.00305489
660 0.0167656
672 0.246336
684 0.00513073
696 0.00294356
708 0.00162574
720 0.00176517
732 0.00207405
744 0.0355067
756 0.00850782
768 0.00176356
780 0.00177955
792 0.00269298
804 0.00586151
816 0.148478
828 0.0241051
840 0.00378698
852 0.0018788
864 0.00171397
876 0.0013026
888 0.00143733
900 0.00106988
912 0.00121114
924 0.00207024
936 0.00739522
948 0.337101
960 0.00549555
972 0.00230865
984 0.00205444
996 0.0056366
1008 0.0544697
1020 0.00224317
1032 0.00207268
1044 0.00594785
1056 0.162289
1068 0.0292783
1080 0.00374115
1092 0.00314621
1104 0.0212526
1116 0.0753561
1128 0.00243313
1140 0.00174964
1152 0.00507462
1164 0.0655899
1176 0.00216373
1188 0.00176303
1200 0.00649847
1212 0.0329224
1224 0.0029699
1236 0.00522839
1248 0.0759347
1260 0.087456
1272 0.0046326
1284 0.00177274
1296 0.00125397
1308 0.00134719
1320 0.00139779
1332 0.00963183
1344 0.0201504
1356 0.00281672
1368 0.00290145
1380 0.0493409
1392 0.00813411
1404 0.00413726
1416 0.0530804
1428 0.0868283
1440 0.00448607
1452 0.00623096
1464 0.0597172
1476 0.00344533
1488 0.010485
1500 0.0914312
1512 0.00928736
1524 0.00460753
1536 0.0364659
1548 0.00470573
1560 0.00347748
1572 0.0797585
1584 0.00452544
1596 0.00170273
1608 0.0016635
1620 0.00206115
1632 0.00679746
1644 0.0832544
1656 0.00627131
1668 0.00611113
1680 0.0187919
1692 0.00620657
1704 0.0608641
1716 0.0974113
1728 0.00813233
1740 0.0276772
1752 0.0184028
1764 0.00192434
1776 0.00130396
1788 0.00165288
1800 0.0122071
1812 0.0260393
1824 0.00720969
1836 0.0601888
1848 0.0299779
1860 0.00218336
1872 0.00114048
1884 0.00168745
1896 0.0157998
1908 0.00685055
1920 0.00661354
1932 0.0175254
1944 0.00528866
1956 0.0566789
1968 0.0127904
1980 0.0179963
1992 0.0269724
2004 0.00850313
2016 0.0572605
2028 0.00807533
2040 0.00764165
2052 0.0083013
2064 0.0375322
2076 0.0509367
2088 0.00469137
2100 0.00267438
2112 0.00642186
2124 0.0206098
2136 0.018102
2148 0.0203354
2160 0.0133758
2172 0.0208033
2184 0.0284774
2196 0.00566661
2208 0.011824
2220 0.009221
2232 0.0148287
2244 0.00733176
2256 0.0160824
2268 0.00850926
2280 0.0231659
2292 0.00830576
2304 0.00142806
2316 0.000854528
2328 0.00967684
2340 0.00298787
2352 0.00919277
2364 0.0105512
2376 0.0415999
2388 0.0174443
2400 0.0134302
2412 0.0102739
2424 0.0168049
2436 0.0103719
2448 0.0108587
2460 0.015277
2472 0.0366263
2484 0.0179668
2496 0.00383258
2508 0.0104978
2520 0.028046
2532 0.00680263
2544 0.00734422
2556 0.00774707
2568 0.00677698
2580 0.0128057
2592 0.00966291
2604 0.0020836
2616 0.00245299
2628 0.00912506
2640 0.0137464
2652 0.0263102
2664 0.00680645
2676 0.00138295
2688 0.00169172
2700 0.00297217
2712 0.00812516
2724 0.0129796
2736 0.02394
2748 0.013053
2760 0.00528367
2772 0.0132993
2784 0.012539
2796 0.00795786
2808 0.00766186
2820 0.0149348
2832 0.00196737
2844 0.00282012
2856 0.00768895
2868 0.00930946
2880 0.00553195
2892 0.0175859
2904 0.0187142
2916 0.0100677
2928 0.0065458
2940 0.00936282
2952 0.00629952
2964 0.00662387
2976 0.00806409
2988 0.00451454
3000 0.000917539
3012 0.0043086
3024 0.00783773
3036 0.00667611
3048 0.00729663
3060 0.00722981
3072 0.00864179
3084 0.00973274
3096 0.00842551
3108 0.00527906
3120 0.0109052
3132 0.0154195
3144 0.00627995
3156 0.00407006
3168 0.0100654
3180 0.00863337
3192 0.0140233
3204 0.0145455
3216 0.00738213
3228 0.00252501
3240 0.00316026
3252 0.00262165
3264 0.00815488
3276 0.0103559
3288 0.00381299
3300 0.00410731
3312 0.00274121
3324 0.00509385
3336 0.00879899
3348 0.0099818
3360 0.00765032
3372 0.00614026
3384 0.00623584
3396 0.00765203
3408 0.00565642
3420 0.00357809
3432 0.0037359
3444 0.00499649
3456 0.00866753
3468 0.00892487
3480 0.00953936
3487 0.0016804

File: BTO_270K_tth.xy
0.000000000000000000e+00 0.00027742
12 0.0103957
24 0.0111385
36 0.00276531
48 0.00297708
60 0.00309564
72 0.00326238
84 0.00363819
96 0.00348157
108 0.00341721
120 0.00330639
132 0.00321167
144 0.00309258
156 0.00292095
168 0.00284385
180 0.00267229
192 0.0025819
204 0.00236638
216 0.00231391
228 0.00223246
240 0.00221643
252 0.00230551
264 0.00226372
276 0.00240591
288 0.00270496
300 0.00237767
312 0.00217636
324 0.00303178
336 0.0648224
348 0.00170476
360 0.00441006
372 0.000944507
384 0.000913792
396 0.000875806
408 0.001079
420 0.00126974
432 0.00133695
444 0.00222148
456 0.00486641
468 0.0789296
480 0.0232364
492 0.00333418
504 0.00173771
516 0.00182451
528 0.000226024
540 0.00032774
552 0.000489676
564 0.00160488
576 0.0572822
588 0.00504777
600 0.00105303
612 0.00066579
624 0.00194144
636 0.00164738
648 0.00216651
660 0.016179
672 0.249904
684 0.00443215
696 0.00209572
708 0.000827302
720 0.000768213
732 0.00134003
744 0.0348972
756 0.00765289
768 0.000953119
780 0.00113499
792 0.00183791
804 0.00508929
816 0.149476
828 0.0230862
840 0.00302734
852 0.00125342
864 0.000775212
876 0.00035111
888 0.000653978
900 0.000340834
912 0.000579664
924 0.00131241
936 0.00676271
948 0.335669
960 0.00488795
972 0.00149005
984 0.00149406
996 0.00508864
1008 0.053447
1020 0.00152837
1032 0.00144892
1044 0.00502718
1056 0.16032
1068 0.027471
1080 0.00258951
1092 0.00202186
1104 0.0207901
1116 0.0740294
1128 0.00150326
1140 0.000945264
1152 0.00409074
1164 0.0633455
1176 0.00132918
1188 0.000756358
1200 0.00573254
1212 0.0322804
1224 0.00222988
1236 0.00450948
1248 0.0758588
1260 0.0847564
1272 0.00344517
1284 0.00116536
1296 0.00035201
1308 0.00055085
1320 0.00103917
1332 0.00901723
1344 0.0198192
1356 0.00203785
1368 0.00250145
1380 0.0482514
1392 0.00734397
1404 0.00324514
1416 0.0525119
1428 0.0870112
1440 0.00374609
1452 0.00518214
1464 0.058479
1476 0.00297986
1488 0.00982667
1500 0.0902385
1512 0.00826932
1524 0.0036675
1536 0.0351644
1548 0.00393783
1560 0.00215608
1572 0.0807689
1584 0.00372049
1596 0.00105766
1608 0.000686494
1620 0.00138732
1632 0.00620229
1644 0.0827385
1656 0.00517606
1668 0.00597937
1680 0.0182366
1692 0.00550692
1704 0.0604117
1716 0.0965643
1728 0.00714019
1740 0.0263205
1752 0.017679
1764 0.00116738
1776 0.000529546
1788 0.000855228
1800 0.0112655
1812 0.025695
1824 0.00650864
1836 0.0582852
1848 0.028064
1860 0.00145379
1872 0.0002587
1884 0.00102533
1896 0.0153971
1908 0.00593611
1920 0.00584331
1932 0.0169071
1944 0.00472332
1956 0.0562516
1968 0.0115537
1980 0.0171912
1992 0.0266979
2004 0.00761186
2016 0.0563128
2028 0.00730073
2040 0.00652122
2052 0.00854195
2064 0.0370635
2076 0.0501614
2088 0.00371921
2100 0.00170439
2112 0.00561368
2124 0.0192069
2136 0.0166536
2148 0.019198
2160 0.0129346
2172 0.0197855
2184 0.0270258
2196 0.00523251
2208 0.0114308
2220 0.00916353
2232 0.0144274
2244 0.00625171
2256 0.0150806
2268 0.0082903
2280 0.0219698
2292 0.00741711
2304 0.000330301
2316 0.000541026
2328 0.00905304
2340 0.00260329
2352 0.00841952
2364 0.0094986
2376 0.0407741
2388 0.0170143
2400 0.0126192
2412 0.010273
2424 0.0158725
2436 0.00931893
2448 0.010371
2460 0.0149368
2472 0.0355369
2484 0.016454
2496 0.00291396
2508 0.00915521
2520 0.0276568
2532 0.00595497
2544 0.00616968
2556 0.00708757
2568 0.00642852
2580 0.0116044
2592 0.00881638
2604 0.00083095
2616 0.00174557
2628 0.00869544
2640 0.013336
2652 0.0248087
2664 0.00553713
2676 0.000829045
2688 0.00139468
2700 0.00198449
2712 0.00761492
2724 0.0120445
2736 0.0232649
2748 0.0118058
2760 0.00466656
2772 0.0120578
2784 0.0114619
2796 0.00597909
2808 0.00699111
2820 0.0141832
2832 0.000307067
2844 0.00159962
2856 0.00718853
2868 0.00808163
2880 0.00481276
2892 0.0171069
2904 0.0189276
2916 0.00801457
2928 0.00587197
2940 0.00843666
2952 0.00503466
2964 0.00463547
2976 0.00739875
2988 0.00151821
3000 7.2079e-05
3012 0.00441549
3024 0.00723706
3036 0.00640706
3048 0.00709628
3060 0.00568964
3072 0.0075831
3084 0.0089917
3096 0.00842676
3108 0.00539567
3120 0.0099194
3132 0.0137333
3144 0.00485619
3156 0.00399076
3168 0.00837584
3180 0.00686324
3192 0.011943
3204 0.0157759
3216 0.00601342
3228 0.00191323
3240 1.89403e-05
3252 0.00267829
3264 0.00640303
3276 0.00975639
3288 0.00259735
3300 0.000974819
3312 0.00309514
3324 0.00333267
3336 0.00857893
3348 0.00869385
3360 0.00473421
3372 0.00369327
3384 0.00598473
3396 0.00551937
3408 0.00374043
3420 0.00022955
3432 0.00583007
3444 0.00676946
3456 0.00634692
3468 0.00628267
3480 0.00560826
3487 0.00368438