Folder: pub-Maffettone_2021_04/constrainednmf/example_data/BaTiO3_xrd_ramp (part 8)

File: BTO_330K_tth.xy
0.000000000000000000e+00 0.000482103
12 0.0123365
24 0.0129992
36 0.00274529
48 0.00277365
60 0.00291711
72 0.00309245
84 0.00349366
96 0.00344291
108 0.00335533
120 0.00333285
132 0.00335172
144 0.00329785
156 0.00319729
168 0.00312911
180 0.00305212
192 0.00291935
204 0.00274549
216 0.00271484
228 0.00284008
240 0.00279544
252 0.00283693
264 0.00291552
276 0.00297871
288 0.00332004
300 0.00285712
312 0.0027404
324 0.00356668
336 0.0708205
348 0.00205292
360 0.00486781
372 0.00123861
384 0.00123909
396 0.00111811
408 0.00122681
420 0.00139265
432 0.00161767
444 0.00246308
456 0.00499536
468 0.0859356
480 0.0243779
492 0.00352865
504 0.0020137
516 0.00201424
528 0.00051689
540 0.000508834
552 0.000586382
564 0.00173978
576 0.0633313
588 0.00515877
600 0.00114221
612 0.000830859
624 0.00228926
636 0.00195832
648 0.00266325
660 0.0200346
672 0.3458
684 0.00484189
696 0.00211508
708 0.00114529
720 0.00116433
732 0.00160705
744 0.0483881
756 0.00742414
768 0.00111083
780 0.00134457
792 0.00216123
804 0.00577626
816 0.191349
828 0.022317
840 0.00340602
852 0.00134254
864 0.00080323
876 0.000698429
888 0.000767522
900 0.000440663
912 0.000621481
924 0.0012486
936 0.00695389
948 0.278887
960 0.00509632
972 0.00151161
984 0.00127006
996 0.00679634
1008 0.0582585
1020 0.00139349
1032 0.00137004
1044 0.00573006
1056 0.114426
1068 0.021763
1080 0.00271402
1092 0.00215212
1104 0.0349132
1116 0.068142
1128 0.00134686
1140 0.000686247
1152 0.0045434
1164 0.0473702
1176 0.00123427
1188 0.000640075
1200 0.0062719
1212 0.0319018
1224 0.00237721
1236 0.00497251
1248 0.0962094
1260 0.0748321
1272 0.00333427
1284 0.000742915
1296 0.000377136
1308 0.000553896
1320 0.00114645
1332 0.0193711
1344 0.0427466
1356 0.00197454
1368 0.00327668
1380 0.0384671
1392 0.00557424
1404 0.00412284
1416 0.0622441
1428 0.0995881
1440 0.00434699
1452 0.00578555
1464 0.042036
1476 0.0034184
1488 0.0133587
1500 0.0854942
1512 0.00775427
1524 0.00459334
1536 0.0247657
1548 0.00392186
1560 0.00348391
1572 0.102265
1584 0.00402019
1596 0.00187181
1608 0.00125718
1620 0.00169637
1632 0.00784473
1644 0.083194
1656 0.00569652
1668 0.00710298
1680 0.0164721
1692 0.0071191
1704 0.0597446
1716 0.124998
1728 0.00809591
1740 0.0151109
1752 0.0123991
1764 0.00150526
1776 0.000886872
1788 0.00159092
1800 0.0131419
1812 0.0294268
1824 0.00880966
1836 0.028324
1848 0.0164896
1860 0.00167399
1872 7.58479e-05
1884 0.000865558
1896 0.0286401
1908 0.00705415
1920 0.00735764
1932 0.0179562
1944 0.00530694
1956 0.0524426
1968 0.00926724
1980 0.0210826
1992 0.0268695
2004 0.00872514
2016 0.0425766
2028 0.00604407
2040 0.00305723
2052 0.00797442
2064 0.0374806
2076 0.0645858
2088 0.00341937
2100 0.00138158
2112 0.0120648
2124 0.0107824
2136 0.0102734
2148 0.0161018
2160 0.0113129
2172 0.0288809
2184 0.0269618
2196 0.00601474
2208 0.0116581
2220 0.0128424
2232 0.0210704
2244 0.00636528
2256 0.0136318
2268 0.012772
2280 0.0174581
2292 0.00453182
2304 0.000557949
2316 0.00065989
2328 0.0121292
2340 0.00343486
2352 0.00583829
2364 0.0117665
2376 0.0413709
2388 0.017772
2400 0.0118325
2412 0.0100383
2424 0.0138943
2436 0.0104387
2448 0.00973225
2460 0.0180602
2472 0.0264626
2484 0.0094294
2496 0.00344159
2508 0.0134983
2520 0.0287012
2532 0.00571024
2544 0.00760697
2556 0.00455547
2568 0.0115064
2580 0.00866686
2592 0.011544
2604 0.00108891
2616 0.0020528
2628 0.00753042
2640 0.0147264
2652 0.0198264
2664 0.00356497
2676 0.00124195
2688 0.000919678
2700 0.00462787
2712 0.00671562
2724 0.0150287
2736 0.0224079
2748 0.00798295
2760 0.00814161
2772 0.00919061
2784 0.0158569
2796 0.0037686
2808 0.00669834
2820 0.0106077
2832 0.000765742
2844 0.00414618
2856 0.00504363
2868 0.00913607
2880 0.00559035
2892 0.0118976
2904 0.0232563
2916 0.0078508
2928 0.0056132
2940 0.00550159
2952 0.00366017
2964 0.00760931
2976 0.00752752
2988 0.0023516
3000 0.00197466
3012 0.00379836
3024 0.00684633
3036 0.00733045
3048 0.00466237
3060 0.0107731
3072 0.00899172
3084 0.00709234
3096 0.0140087
3108 0.00698311
3120 0.0122434
3132 0.0125343
3144 0.00394348
3156 0.00390824
3168 0.00830752
3180 0.00872554
3192 0.0125486
3204 0.0164326
3216 0.00481181
3228 0.00615177
3240 0.00192578
3252 0.00462055
3264 0.00586346
3276 0.00678237
3288 0.00136433
3300 0.00170759
3312 0.00471497
3324 0.00347957
3336 0.00549325
3348 0.00963002
3360 0.00331958
3372 0.00262638
3384 0.00421796
3396 0.00256218
3408 0.0025487
3420 0.00735811
3432 0.00751752
3444 0.0133944
3456 0.0146713
3468 0.0144366
3480 0.0243835
3487 0.000257672

File: BTO_335K_tth.xy
0.000000000000000000e+00 0.000270678
12 0.0123042
24 0.0131244
36 0.00296137
48 0.00304327
60 0.00315304
72 0.00327471
84 0.00369566
96 0.00357078
108 0.00348242
120 0.00329281
132 0.00322362
144 0.00310598
156 0.00297444
168 0.00283672
180 0.00271743
192 0.00257967
204 0.0023743
216 0.00232983
228 0.00225919
240 0.00224784
252 0.00229375
264 0.00236215
276 0.0025489
288 0.00280421
300 0.0023518
312 0.0021768
324 0.00312671
336 0.0698706
348 0.0017067
360 0.00443119
372 0.000791824
384 0.000841403
396 0.000766753
408 0.000781605
420 0.00107847
432 0.0012893
444 0.00211204
456 0.00494002
468 0.0861149
480 0.024011
492 0.00330972
504 0.0018367
516 0.00167204
528 0.000153103
540 0.000159174
552 0.000504355
564 0.00159579
576 0.0637301
588 0.00477146
600 0.000953755
612 0.000600219
624 0.00197752
636 0.00171977
648 0.00235681
660 0.0199999
672 0.345112
684 0.00444881
696 0.00193439
708 0.000941705
720 0.000753664
732 0.0014002
744 0.0479293
756 0.00712042
768 0.000973866
780 0.00105999
792 0.00202446
804 0.00561207
816 0.191808
828 0.0219393
840 0.00344696
852 0.00125648
864 0.000923087
876 0.000733089
888 0.000664271
900 0.000624762
912 0.000458121
924 0.00119823
936 0.00720441
948 0.277924
960 0.00513187
972 0.00152341
984 0.00125034
996 0.00658428
1008 0.0582087
1020 0.00130698
1032 0.00160262
1044 0.00589149
1056 0.113951
1068 0.021519
1080 0.00301565
1092 0.00222046
1104 0.0353045
1116 0.0662755
1128 0.00155337
1140 0.000970067
1152 0.0045866
1164 0.0462981
1176 0.00138509
1188 0.000917377
1200 0.00629609
1212 0.0317088
1224 0.00247473
1236 0.00475776
1248 0.0962535
1260 0.0727033
1272 0.00379367
1284 0.000943561
1296 0.000272414
1308 0.000295134
1320 0.000660684
1332 0.0191796
1344 0.0435729
1356 0.00174827
1368 0.00276178
1380 0.0380688
1392 0.00487875
1404 0.00373878
1416 0.0619691
1428 0.0960453
1440 0.00411292
1452 0.00546826
1464 0.0418081
1476 0.00316269
1488 0.0130819
1500 0.0863292
1512 0.00692352
1524 0.004396
1536 0.0241651
1548 0.00301646
1560 0.00281528
1572 0.102901
1584 0.00345106
1596 0.0010813
1608 0.000746392
1620 0.0010867
1632 0.00741108
1644 0.0847986
1656 0.00502909
1668 0.00634661
1680 0.0160645
1692 0.00632451
1704 0.0593518
1716 0.123414
1728 0.00756039
1740 0.0151106
1752 0.0109334
1764 0.00110223
1776 0.000474724
1788 0.00095055
1800 0.0128338
1812 0.0284907
1824 0.0086335
1836 0.0275587
1848 0.0156022
1860 0.00120312
1872 0.000386207
1884 0.00128554
1896 0.0283243
1908 0.00661919
1920 0.0072171
1932 0.0177993
1944 0.00520992
1956 0.0529563
1968 0.00939066
1980 0.0212325
1992 0.0270685
2004 0.00899453
2016 0.0428346
2028 0.00583322
2040 0.00354651
2052 0.00811857
2064 0.0365052
2076 0.0638673
2088 0.00325438
2100 0.00223713
2112 0.0123471
2124 0.0106808
2136 0.0102673
2148 0.0160101
2160 0.0112315
2172 0.0292127
2184 0.0270953
2196 0.00620394
2208 0.0116543
2220 0.0133428
2232 0.0221598
2244 0.00647878
2256 0.0137262
2268 0.0128506
2280 0.0179486
2292 0.004126
2304 0.000534687
2316 0.000493342
2328 0.0122541
2340 0.00358736
2352 0.0054943
2364 0.011209
2376 0.0411017
2388 0.0168822
2400 0.011603
2412 0.00983105
2424 0.0138501
2436 0.0099811
2448 0.00937323
2460 0.0175451
2472 0.0265168
2484 0.00880461
2496 0.0033614
2508 0.0131052
2520 0.0287222
2532 0.0048598
2544 0.00691695
2556 0.00418393
2568 0.0114013
2580 0.00854356
2592 0.0110211
2604 0.00145098
2616 0.00210853
2628 0.00798941
2640 0.0143765
2652 0.0199177
2664 0.00433927
2676 0.00142982
2688 0.000967413
2700 0.00425961
2712 0.00769988
2724 0.0143218
2736 0.0222684
2748 0.00779244
2760 0.00939313
2772 0.00884694
2784 0.0153749
2796 0.00357374
2808 0.00575798
2820 0.00998237
2832 0.000324858
2844 0.00329147
2856 0.00523861
2868 0.00948342
2880 0.00485409
2892 0.0121767
2904 0.0236151
2916 0.00718562
2928 0.00521593
2940 0.00523331
2952 0.00408676
2964 0.00613813
2976 0.00752093
2988 0.00248493
3000 0.000450673
3012 0.00255652
3024 0.00756948
3036 0.00836923
3048 0.00273982
3060 0.0103842
3072 0.00716884
3084 0.00744612
3096 0.00990538
3108 0.00700989
3120 0.0110367
3132 0.0116519
3144 0.0034726
3156 0.00418087
3168 0.00630407
3180 0.00787935
3192 0.0108239
3204 0.0144824
3216 0.00346753
3228 0.00479722
3240 0.00204247
3252 0.00412478
3264 0.00709633
3276 0.00797261
3288 0.00119032
3300 0.0018268
3312 0.00741152
3324 0.00426097
3336 0.00570056
3348 0.00798866
3360 0.00454712
3372 0.00392653
3384 0.00290426
3396 0.00415846
3408 0.00361104
3420 0.00253108
3432 0.00272239
3444 0.00964502
3456 0.00715872
3468 0.0107881
3480 0.00945008
3487 0.00147489

File: BTO_340K_tth.xy
0.000000000000000000e+00 0.000322652
12 0.0122549
24 0.0130363
36 0.00276628
48 0.0028795
60 0.00300735
72 0.00312349
84 0.00351552
96 0.00342428
108 0.0033847
120 0.00328551
132 0.00336373
144 0.00330602
156 0.00322781
168 0.00312898
180 0.00298918
192 0.00283962
204 0.00273937
216 0.00273927
228 0.00266602
240 0.00268975
252 0.00283136
264 0.00286521
276 0.00309631
288 0.00323654
300 0.00286727
312 0.0025903
324 0.00365957
336 0.0697203
348 0.0020173
360 0.00471205
372 0.00122872
384 0.00109023
396 0.00107911
408 0.00124058
420 0.00142555
432 0.00151891
444 0.00232601
456 0.00516634
468 0.0865784
480 0.0241348
492 0.00356807
504 0.00191841
516 0.00200754
528 0.000469437
540 0.000391287
552 0.000611024
564 0.00181144
576 0.064633
588 0.0049507
600 0.00127282
612 0.000889866
624 0.00216097
636 0.00198026
648 0.00257885
660 0.0202615
672 0.343722
684 0.00467594
696 0.00202764
708 0.00111412
720 0.000963156
732 0.00175676
744 0.0482234
756 0.00738713
768 0.00145261
780 0.00129705
792 0.00246022
804 0.00587811
816 0.191774
828 0.0218364
840 0.00366033
852 0.00150749
864 0.000960311
876 0.000650964
888 0.000956494
900 0.00042739
912 0.000573576
924 0.00143224
936 0.00743107
948 0.276689
960 0.00476131
972 0.00159221
984 0.00132971
996 0.00689346
1008 0.0572754
1020 0.00141528
1032 0.00141055
1044 0.0057837
1056 0.113541
1068 0.0209288
1080 0.00256852
1092 0.00222202
1104 0.0349742
1116 0.0642225
1128 0.00121696
1140 0.00102182
1152 0.00487565
1164 0.0444733
1176 0.00129595
1188 0.000756992
1200 0.00657453
1212 0.0313782
1224 0.00221976
1236 0.00448398
1248 0.096465
1260 0.0705045
1272 0.00329745
1284 0.00106287
1296 0.000298057
1308 0.00039198
1320 0.000827296
1332 0.0192009
1344 0.0446123
1356 0.00169563
1368 0.00300713
1380 0.0383079
1392 0.00533432
1404 0.00367833
1416 0.0626165
1428 0.0935643
1440 0.00418585
1452 0.00572072
1464 0.0425597
1476 0.00333658
1488 0.0132876
1500 0.0874891
1512 0.00715635
1524 0.00491889
1536 0.0247853
1548 0.00362931
1560 0.00338387
1572 0.103302
1584 0.00374081
1596 0.00125414
1608 0.00118131
1620 0.0018718
1632 0.00812979
1644 0.0859748
1656 0.00567706
1668 0.00674269
1680 0.0166072
1692 0.00648638
1704 0.0600326
1716 0.122453
1728 0.0081241
1740 0.0152592
1752 0.010469
1764 0.0014961
1776 0.00116564
1788 0.00111348
1800 0.0132181
1812 0.0284288
1824 0.00844855
1836 0.0269523
1848 0.0149199
1860 0.00135216
1872 0.000128939
1884 0.000971712
1896 0.0285781
1908 0.00606645
1920 0.00701763
1932 0.0176204
1944 0.00526014
1956 0.0528665
1968 0.00915375
1980 0.0212918
1992 0.0263771
2004 0.00833319
2016 0.0424181
2028 0.00571715
2040 0.00335466
2052 0.007825
2064 0.0361914
2076 0.063302
2088 0.00298097
2100 0.00199407
2112 0.0116879
2124 0.0103635
2136 0.00922584
2148 0.0153983
2160 0.0104598
2172 0.0284467
2184 0.0264477
2196 0.0055397
2208 0.0112423
2220 0.0128788
2232 0.0220538
2244 0.00614902
2256 0.013401
2268 0.0123722
2280 0.0177782
2292 0.00437722
2304 0.000764768
2316 0.0005369
2328 0.0123233
2340 0.00331536
2352 0.00570225
2364 0.0108467
2376 0.0414819
2388 0.0165343
2400 0.0115418
2412 0.00984299
2424 0.0137233
2436 0.00990616
2448 0.00995798
2460 0.0177975
2472 0.0263443
2484 0.0087871
2496 0.00364765
2508 0.0132446
2520 0.028338
2532 0.00485928
2544 0.00738653
2556 0.0041409
2568 0.0110867
2580 0.00893202
2592 0.0112172
2604 0.00143725
2616 0.00191088
2628 0.00877555
2640 0.0138201
2652 0.019303
2664 0.00385005
2676 0.00174512
2688 0.000489717
2700 0.00421718
2712 0.00744258
2724 0.0134084
2736 0.022799
2748 0.00775359
2760 0.00873842
2772 0.00908196
2784 0.0153283
2796 0.00347122
2808 0.00615288
2820 0.0101456
2832 0.00100997
2844 0.00376459
2856 0.00559358
2868 0.0094845
2880 0.00430856
2892 0.011241
2904 0.0223182
2916 0.00789977
2928 0.00483262
2940 0.00535533
2952 0.00455812
2964 0.00641289
2976 0.00733454
2988 0.00179677
3000 0.0015051
3012 0.00315356
3024 0.0058863
3036 0.0072264
3048 0.00354462
3060 0.0104243
3072 0.00864739
3084 0.00685105
3096 0.0123475
3108 0.00647331
3120 0.0110863
3132 0.0116076
3144 0.00294918
3156 0.00347809
3168 0.00819621
3180 0.00574288
3192 0.0102403
3204 0.0159534
3216 0.00380264
3228 0.00426404
3240 0.00178554
3252 0.0037937
3264 0.0074449
3276 0.00775847
3288 0.00165218
3300 0.00236601
3312 0.00385346
3324 0.00316392
3336 0.00262717
3348 0.0104657
3360 0.00359214
3372 0.00406282
3384 0.00684827
3396 0.00634188
3408 0.00514961
3420 0.00939794
3432 0.00781687
3444 0.010338
3456 0.0147913
3468 0.0165167
3480 0.0175661
3487 0.00024579

File: BTO_345K_tth.xy
0.000000000000000000e+00 0.000284964
12 0.0123691
24 0.0131425
36 0.00287175
48 0.00287046
60 0.0030377
72 0.00314208
84 0.00353846
96 0.00344737
108 0.00332935
120 0.00327908
132 0.00318431
144 0.00310089
156 0.00288637
168 0.002853
180 0.00271851
192 0.00258907
204 0.0024366
216 0.00235861
228 0.00231321
240 0.00230381
252 0.00248598
264 0.00243682
276 0.0026272
288 0.00281793
300 0.0024336
312 0.00220285
324 0.00316327
336 0.0684439
348 0.00157776
360 0.00443126
372 0.000872615
384 0.00079619
396 0.000758576
408 0.000845883
420 0.00116035
432 0.00120414
444 0.00224943
456 0.00481732
468 0.0867401
480 0.0235173
492 0.00345443
504 0.00180963
516 0.00166264
528 0.0001879
540 0.000216404
552 0.000383445
564 0.00163942
576 0.0651603
588 0.00485631
600 0.0010238
612 0.000495255
624 0.00199068
636 0.0017095
648 0.0023423
660 0.0202217
672 0.340676
684 0.00458014
696 0.00186178
708 0.000929534
720 0.000798829
732 0.00150482
744 0.0479068
756 0.00701519
768 0.00101043
780 0.00131741
792 0.00200233
804 0.00572364
816 0.192322
828 0.0214174
840 0.00332906
852 0.00131995
864 0.000839898
876 0.000601671
888 0.00055081
900 0.000397256
912 0.000581027
924 0.00121272
936 0.0074085
948 0.275958
960 0.00481268
972 0.00171465
984 0.00152869
996 0.0069606
1008 0.0560956
1020 0.00149346
1032 0.00120756
1044 0.00605988
1056 0.113779
1068 0.0203226
1080 0.00296558
1092 0.00216114
1104 0.035172
1116 0.0615026
1128 0.00162336
1140 0.000774781
1152 0.00486352
1164 0.0434701
1176 0.00123994
1188 0.000866602
1200 0.00610552
1212 0.030957
1224 0.00253211
1236 0.00509468
1248 0.096288
1260 0.0677372
1272 0.00356454
1284 0.000978955
1296 9.54441e-06
1308 0.000519046
1320 0.000777073
1332 0.0189299
1344 0.0460362
1356 0.00175606
1368 0.00311507
1380 0.0382494
1392 0.00481342
1404 0.00359954
1416 0.0627968
1428 0.089045
1440 0.0038336
1452 0.0051801
1464 0.0421565
1476 0.00319152
1488 0.013045
1500 0.0896019
1512 0.00712088
1524 0.00434533
1536 0.0247739
1548 0.00332945
1560 0.00306589
1572 0.103096
1584 0.00339781
1596 0.00108882
1608 0.0013637
1620 0.00179868
1632 0.00780473
1644 0.0884754
1656 0.00511609
1668 0.00656175
1680 0.0161573
1692 0.00674062
1704 0.0599191
1716 0.120789
1728 0.00770605
1740 0.0150957
1752 0.0102779
1764 0.00115669
1776 0.000523216
1788 0.00145184
1800 0.0130304
1812 0.0278258
1824 0.00864712
1836 0.0267949
1848 0.0140118
1860 0.00154948
1872 0.000396377
1884 0.00144557
1896 0.0287435
1908 0.00639705
1920 0.00702962
1932 0.0181623
1944 0.00517693
1956 0.0536281
1968 0.00907702
1980 0.0216359
1992 0.026275
2004 0.00879206
2016 0.0420665
2028 0.00581657
2040 0.00332078
2052 0.00697333
2064 0.0365096
2076 0.0618962
2088 0.00333081
2100 0.00147449
2112 0.0117151
2124 0.0105129
2136 0.00902215
2148 0.0158881
2160 0.00987927
2172 0.0287954
2184 0.0256029
2196 0.00564344
2208 0.0107013
2220 0.0126881
2232 0.0233021
2244 0.00612518
2256 0.012891
2268 0.0122325
2280 0.0182683
2292 0.00367933
2304 0.000526956
2316 0.000567244
2328 0.011837
2340 0.00316473
2352 0.00524669
2364 0.0106868
2376 0.0410016
2388 0.0155559
2400 0.0109033
2412 0.00834945
2424 0.0140513
2436 0.00877601
2448 0.00903231
2460 0.0170133
2472 0.0260999
2484 0.00792581
2496 0.00344506
2508 0.0121871
2520 0.0279148
2532 0.0048922
2544 0.00703813
2556 0.00432278
2568 0.0113655
2580 0.00820044
2592 0.0110619
2604 0.00068731
2616 0.0012118
2628 0.00791016
2640 0.0145579
2652 0.0199605
2664 0.00394686
2676 0.0014389
2688 0.000887479
2700 0.00485034
2712 0.00700977
2724 0.0134979
2736 0.0222489
2748 0.00718615
2760 0.00922398
2772 0.00926519
2784 0.0159667
2796 0.00437348
2808 0.00652148
2820 0.0104832
2832 0.00106117
2844 0.00371138
2856 0.00478308
2868 0.00911961
2880 0.00565052
2892 0.0115516
2904 0.02354
2916 0.00796367
2928 0.00506942
2940 0.00429501
2952 0.00381319
2964 0.00585635
2976 0.00645911
2988 0.00177838
3000 0.00137102
3012 0.00160832
3024 0.00607384
3036 0.00656704
3048 0.00465221
3060 0.00979081
3072 0.00650309
3084 0.0047997
3096 0.011997
3108 0.00609346
3120 0.00898615
3132 0.0104736
3144 0.00274182
3156 0.00409184
3168 0.00773003
3180 0.00816621
3192 0.0119056
3204 0.0153733
3216 0.00404693
3228 0.00492822
3240 0.00210967
3252 0.00469187
3264 0.0068448
3276 0.00762884
3288 0.00203363
3300 0.00251932
3312 0.00568218
3324 0.00364703
3336 0.00520536
3348 0.0100184
3360 0.00548166
3372 0.00395519
3384 0.0036121
3396 0.00535111
3408 0.00407589
3420 0.00728709
3432 0.00422865
3444 0.00600558
3456 0.00618248
3468 0.0109663
3480 0.0167741
3487 6.11837e-05

File: BTO_350K_tth.xy
0.000000000000000000e+00 0.000337999
12 0.0124929
24 0.0131889
36 0.00297536
48 0.00303561
60 0.00316195
72 0.00324284
84 0.00365912
96 0.00346447
108 0.00341218
120 0.00324183
132 0.00323491
144 0.00297279
156 0.00288775
168 0.00280223
180 0.00255412
192 0.00251723
204 0.00236759
216 0.00228969
228 0.00223225
240 0.00214733
252 0.00224857
264 0.00238431
276 0.00248265
288 0.00279071
300 0.00230642
312 0.00213318
324 0.00320016
336 0.067297
348 0.0016984
360 0.00437715
372 0.000734684
384 0.000804027
396 0.000875389
408 0.000910628
420 0.00120307
432 0.0012764
444 0.00211226
456 0.00489172
468 0.0866588
480 0.0232864
492 0.00342564
504 0.00166565
516 0.00165463
528 0.000248819
540 0.000254468
552 0.000687474
564 0.00153719
576 0.0657188
588 0.00482495
600 0.000962757
612 0.000761998
624 0.0021686
636 0.00166155
648 0.00253521
660 0.020339
672 0.335469
684 0.00434044
696 0.00201535
708 0.00103759
720 0.00094691
732 0.00141935
744 0.0472466
756 0.00683901
768 0.000775296
780 0.00115411
792 0.00198941
804 0.00552919
816 0.191679
828 0.0209778
840 0.00312523
852 0.00129914
864 0.000645249
876 0.000551927
888 0.00076252
900 0.000247813
912 0.000259057
924 0.00143199
936 0.00747359
948 0.275996
960 0.00485119
972 0.00162186
984 0.00121084
996 0.00644835
1008 0.054655
1020 0.00121285
1032 0.00120313
1044 0.00577778
1056 0.114235
1068 0.0195015
1080 0.00246152
1092 0.00205901
1104 0.0340163
1116 0.0582235
1128 0.00136965
1140 0.000685926
1152 0.00461328
1164 0.0415922
1176 0.00127105
1188 0.000966875
1200 0.00605022
1212 0.0303107
1224 0.00224198
1236 0.00468526
1248 0.0954628
1260 0.0639007
1272 0.00359775
1284 0.00108077
1296 0.000192512
1308 0.000347555
1320 0.000587158
1332 0.018667
1344 0.0471579
1356 0.0016218
1368 0.00272621
1380 0.0385636
1392 0.00465365
1404 0.00382421
1416 0.062433
1428 0.0842059
1440 0.00390634
1452 0.00558295
1464 0.0424027
1476 0.00308691
1488 0.0130477
1500 0.0916894
1512 0.00685682
1524 0.00436801
1536 0.0250154
1548 0.0031468
1560 0.00311084
1572 0.104172
1584 0.00326891
1596 0.00148909
1608 0.00113679
1620 0.00158958
1632 0.00756455
1644 0.090762
1656 0.00499086
1668 0.00636341
1680 0.0161148
1692 0.00655476
1704 0.0591067
1716 0.117288
1728 0.00701976
1740 0.0148464
1752 0.00936932
1764 0.000978943
1776 0.000628951
1788 0.00126299
1800 0.0125948
1812 0.0263437
1824 0.00846697
1836 0.0265693
1848 0.0131358
1860 0.000990743
1872 0.000498465
1884 0.00116696
1896 0.0283009
1908 0.00551445
1920 0.00699583
1932 0.0176543
1944 0.00485199
1956 0.0540914
1968 0.00802049
1980 0.0206876
1992 0.0252853
2004 0.00922729
2016 0.0422323
2028 0.00558322
2040 0.00317179
2052 0.00703714
2064 0.0362183
2076 0.0603319
2088 0.00312414
2100 0.00163325
2112 0.0111517
2124 0.0108305
2136 0.00828634
2148 0.0160621
2160 0.00936526
2172 0.0289489
2184 0.0245856
2196 0.00604016
2208 0.00971379
2220 0.0125748
2232 0.0244641
2244 0.00605465
2256 0.0132543
2268 0.011838
2280 0.0187381
2292 0.00362792
2304 0.00031917
2316 0.000583535
2328 0.012381
2340 0.00316938
2352 0.00555598
2364 0.0109083
2376 0.041445
2388 0.0148625
2400 0.0115685
2412 0.00863074
2424 0.0143927
2436 0.00881051
2448 0.00961737
2460 0.0178436
2472 0.0269426
2484 0.00806566
2496 0.00378113
2508 0.0131719
2520 0.0286107
2532 0.005339
2544 0.00746183
2556 0.00395407
2568 0.0117414
2580 0.00848997
2592 0.0110678
2604 0.00146654
2616 0.00205261
2628 0.00780253
2640 0.0145891
2652 0.0208547
2664 0.00391569
2676 0.00162302
2688 0.000000000000000000e+00
2700 0.0049686
2712 0.00771241
2724 0.0133824
2736 0.0222192
2748 0.00659137
2760 0.00830982
2772 0.0091744
2784 0.0152619
2796 0.00314257
2808 0.00580535
2820 0.0102146
2832 0.00131108
2844 0.00421541
2856 0.00516536
2868 0.0079273
2880 0.00519614
2892 0.0109173
2904 0.0236048
2916 0.0073883
2928 0.00499159
2940 0.00517993
2952 0.00297314
2964 0.00647253
2976 0.00661089
2988 0.00186499
3000 0.00148819
3012 0.00258402
3024 0.00590983
3036 0.00849621
3048 0.00444456
3060 0.0085292
3072 0.0083201
3084 0.005892
3096 0.0127285
3108 0.00621267
3120 0.0102523
3132 0.0126275
3144 0.00303183
3156 0.00370929
3168 0.00864378
3180 0.00682057
3192 0.0110208
3204 0.0154644
3216 0.00447057
3228 0.00496812
3240 0.00320259
3252 0.00358137
3264 0.00662892
3276 0.00896556
3288 0.00274793
3300 0.00316991
3312 0.00661627
3324 0.00715388
3336 0.00765062
3348 0.0103309
3360 0.00571027
3372 0.0051625
3384 0.00633158
3396 0.00519162
3408 0.00437221
3420 0.00703073
3432 0.00790291
3444 0.00673012
3456 0.00744449
3468 0.00854333
3480 0.0177486
3487 0.0354679