Folder: pub-Maffettone_2021_04/constrainednmf/example_data/BaTiO3_xrd_ramp (part 10)

File: BTO_380K_tth.xy
0.000000000000000000e+00 0.00150432
12 0.013239
24 0.0137198
36 0.00337252
48 0.00338402
60 0.00343379
72 0.00358737
84 0.00403402
96 0.00398768
108 0.0039238
120 0.00393776
132 0.00403007
144 0.00395756
156 0.00387589
168 0.00384194
180 0.00384343
192 0.00379863
204 0.00362019
216 0.00366382
228 0.00369262
240 0.00370747
252 0.00381943
264 0.00385798
276 0.00399222
288 0.0042219
300 0.00381425
312 0.00351011
324 0.00449126
336 0.0630494
348 0.00288932
360 0.00561175
372 0.00207614
384 0.00197707
396 0.00183932
408 0.00200743
420 0.00218893
432 0.00237153
444 0.00310413
456 0.00588501
468 0.0884332
480 0.0228079
492 0.00408076
504 0.00263376
516 0.002278
528 0.00124001
540 0.00118546
552 0.00136169
564 0.00250607
576 0.070119
588 0.00542172
600 0.00184656
612 0.00146668
624 0.00304233
636 0.00253051
648 0.00340362
660 0.0204228
672 0.298525
684 0.0056117
696 0.00288272
708 0.0017093
720 0.00192176
732 0.00252122
744 0.0448397
756 0.00715018
768 0.00195676
780 0.00214263
792 0.00320378
804 0.00676736
816 0.185895
828 0.0204322
840 0.00424652
852 0.00253295
864 0.00172857
876 0.00154348
888 0.00139254
900 0.00135531
912 0.0012708
924 0.00239955
936 0.00837903
948 0.284401
960 0.0053305
972 0.00240259
984 0.00194755
996 0.00716079
1008 0.0479133
1020 0.00217202
1032 0.00222123
1044 0.00655049
1056 0.123187
1068 0.0178616
1080 0.00332658
1092 0.00294816
1104 0.0303242
1116 0.0444771
1128 0.00204849
1140 0.00180699
1152 0.00535091
1164 0.0353764
1176 0.00168224
1188 0.00136772
1200 0.00651709
1212 0.0266357
1224 0.00290821
1236 0.00525121
1248 0.0903116
1260 0.0501064
1272 0.00404868
1284 0.00188393
1296 0.0011683
1308 0.00117435
1320 0.00144916
1332 0.016555
1344 0.0499162
1356 0.0025443
1368 0.00341864
1380 0.0418329
1392 0.00536579
1404 0.00500051
1416 0.0622509
1428 0.0610099
1440 0.00463158
1452 0.00656474
1464 0.0433675
1476 0.00412337
1488 0.0134434
1500 0.106855
1512 0.00750454
1524 0.0055747
1536 0.0307154
1548 0.00388363
1560 0.00397616
1572 0.107356
1584 0.00457008
1596 0.00234774
1608 0.00239392
1620 0.00273024
1632 0.00863627
1644 0.104067
1656 0.00571157
1668 0.00752758
1680 0.0191435
1692 0.00779258
1704 0.0598497
1716 0.0949898
1728 0.00811314
1740 0.0163237
1752 0.00771043
1764 0.00175716
1776 0.00149083
1788 0.0019461
1800 0.012897
1812 0.0221794
1824 0.00866332
1836 0.0298457
1848 0.0107053
1860 0.00208248
1872 0.00110466
1884 0.00203925
1896 0.0287646
1908 0.00427394
1920 0.00588359
1932 0.0181218
1944 0.00525508
1956 0.0586177
1968 0.00720103
1980 0.0198475
1992 0.0212941
2004 0.00914564
2016 0.0443499
2028 0.00542989
2040 0.00319312
2052 0.00622165
2064 0.0349624
2076 0.0478301
2088 0.00295643
2100 0.00141362
2112 0.00925432
2124 0.0128335
2136 0.00720675
2148 0.0168343
2160 0.00712017
2172 0.0283314
2184 0.0193518
2196 0.00590355
2208 0.00717866
2220 0.0122152
2232 0.0291219
2244 0.00554747
2256 0.0140881
2268 0.00993086
2280 0.0230602
2292 0.00343282
2304 0.000774689
2316 0.001085
2328 0.0134784
2340 0.00349945
2352 0.00686351
2364 0.0108083
2376 0.0430465
2388 0.0124918
2400 0.0119945
2412 0.00790751
2424 0.0157489
2436 0.00824714
2448 0.0107488
2460 0.0168563
2472 0.0307578
2484 0.00726247
2496 0.00461847
2508 0.0126049
2520 0.0292899
2532 0.00589886
2544 0.00789107
2556 0.00559062
2568 0.0116445
2580 0.0100465
2592 0.00824269
2604 0.00222677
2616 0.00306614
2628 0.00915094
2640 0.0133318
2652 0.0233621
2664 0.00312242
2676 0.00203059
2688 0.00153634
2700 0.00556065
2712 0.00693862
2724 0.0114096
2736 0.0228074
2748 0.00561711
2760 0.00776362
2772 0.00939911
2784 0.0128042
2796 0.00442778
2808 0.00438688
2820 0.00971474
2832 0.000678064
2844 0.00281446
2856 0.00496518
2868 0.00521495
2880 0.00490821
2892 0.0103618
2904 0.0207084
2916 0.00795484
2928 0.00463742
2940 0.00602642
2952 0.00427986
2964 0.004944
2976 0.00776561
2988 0.00226474
3000 0.00352071
3012 0.00367533
3024 0.00573098
3036 0.00895396
3048 0.00522974
3060 0.0101327
3072 0.00939208
3084 0.00700266
3096 0.0123148
3108 0.00551035
3120 0.0114089
3132 0.013597
3144 0.00428233
3156 0.0048191
3168 0.00710083
3180 0.00750471
3192 0.0120636
3204 0.0152533
3216 0.00598073
3228 0.0045734
3240 0.00294448
3252 0.00441518
3264 0.00560704
3276 0.00989957
3288 0.00148644
3300 0.00427734
3312 0.00549691
3324 0.00628254
3336 0.00373616
3348 0.0110091
3360 0.00336814
3372 0.00351664
3384 0.00694584
3396 0.00471147
3408 0.00532126
3420 0.00723366
3432 0.00879819
3444 0.0151167
3456 0.0156865
3468 0.0221517
3480 0.0221196
3487 0.000380405

File: BTO_385K_tth.xy
0.000000000000000000e+00 0.00133833
12 0.013212
24 0.0138015
36 0.00362655
48 0.00371701
60 0.00380361
72 0.00389908
84 0.0043764
96 0.00430524
108 0.00418257
120 0.00424761
132 0.004198
144 0.00422049
156 0.00406332
168 0.00404637
180 0.0038675
192 0.00378284
204 0.00370949
216 0.00368448
228 0.00368657
240 0.00376367
252 0.00379534
264 0.00387621
276 0.00397382
288 0.00433247
300 0.00373435
312 0.00358502
324 0.00451569
336 0.0617208
348 0.00291096
360 0.00569899
372 0.00210697
384 0.00203252
396 0.00199016
408 0.00216649
420 0.00234567
432 0.00242159
444 0.0032948
456 0.00591955
468 0.0885378
480 0.0228569
492 0.00432168
504 0.00296607
516 0.00274912
528 0.00147294
540 0.001334
552 0.00160574
564 0.00272707
576 0.0706059
588 0.00568089
600 0.00204858
612 0.00155604
624 0.00315192
636 0.00278367
648 0.00357548
660 0.0203436
672 0.288306
684 0.00557522
696 0.00292453
708 0.00205761
720 0.0021539
732 0.00252275
744 0.0438106
756 0.00704145
768 0.00224449
780 0.00227909
792 0.00321932
804 0.00682548
816 0.183578
828 0.0200069
840 0.00434956
852 0.00250539
864 0.00195854
876 0.00175105
888 0.00182452
900 0.00131362
912 0.00129485
924 0.00233703
936 0.00834908
948 0.287169
960 0.00535014
972 0.00276874
984 0.00204573
996 0.00724655
1008 0.0465669
1020 0.00228557
1032 0.00249301
1044 0.00673017
1056 0.126028
1068 0.0171552
1080 0.00340762
1092 0.00326294
1104 0.0297025
1116 0.0420063
1128 0.00224319
1140 0.0017847
1152 0.00561108
1164 0.034233
1176 0.00213044
1188 0.00156
1200 0.00674693
1212 0.0258555
1224 0.00329859
1236 0.00579866
1248 0.0885153
1260 0.0477405
1272 0.00435395
1284 0.00190173
1296 0.00134394
1308 0.00138836
1320 0.00184515
1332 0.016071
1344 0.0494634
1356 0.00260061
1368 0.00333177
1380 0.0424512
1392 0.00511131
1404 0.00515697
1416 0.0616001
1428 0.0564879
1440 0.00451167
1452 0.00637206
1464 0.0429339
1476 0.00399239
1488 0.0129146
1500 0.109633
1512 0.0073322
1524 0.00545413
1536 0.0313762
1548 0.00407387
1560 0.00401202
1572 0.107234
1584 0.00434002
1596 0.00222655
1608 0.00200167
1620 0.00290312
1632 0.00868038
1644 0.106812
1656 0.00576515
1668 0.00687177
1680 0.0190596
1692 0.007969
1704 0.0592857
1716 0.0886979
1728 0.00776922
1740 0.0172387
1752 0.00733264
1764 0.00172222
1776 0.00149036
1788 0.00210087
1800 0.0130398
1812 0.0212412
1824 0.00809813
1836 0.0310856
1848 0.00999266
1860 0.00224855
1872 0.0014964
1884 0.00147495
1896 0.0288722
1908 0.00441164
1920 0.00657274
1932 0.0176697
1944 0.00530014
1956 0.0598741
1968 0.00722394
1980 0.0202935
1992 0.0201945
2004 0.0091695
2016 0.0445489
2028 0.00495045
2040 0.00385768
2052 0.00606109
2064 0.0351202
2076 0.0451537
2088 0.0031969
2100 0.00227587
2112 0.00915477
2124 0.01409
2136 0.00700137
2148 0.0170891
2160 0.00687713
2172 0.0280212
2184 0.0181815
2196 0.00586566
2208 0.0080873
2220 0.0120424
2232 0.0294399
2244 0.00559506
2256 0.0146262
2268 0.00981804
2280 0.0243812
2292 0.00410447
2304 0.00106238
2316 0.00136951
2328 0.0134304
2340 0.00363539
2352 0.00721456
2364 0.0108611
2376 0.0439462
2388 0.0115891
2400 0.0123076
2412 0.00747832
2424 0.01597
2436 0.00805068
2448 0.0110567
2460 0.0160253
2472 0.031264
2484 0.00754538
2496 0.00432913
2508 0.0119409
2520 0.0290593
2532 0.00595641
2544 0.00749856
2556 0.00539953
2568 0.0109491
2580 0.00948537
2592 0.00776662
2604 0.00169171
2616 0.00318764
2628 0.0100272
2640 0.0132158
2652 0.0241256
2664 0.00367162
2676 0.00175081
2688 0.00169699
2700 0.00481795
2712 0.0069313
2724 0.011396
2736 0.0229374
2748 0.00603618
2760 0.00832197
2772 0.00975412
2784 0.0116443
2796 0.00446252
2808 0.00508878
2820 0.0110159
2832 0.00172894
2844 0.00347053
2856 0.00575998
2868 0.00529153
2880 0.0054452
2892 0.012358
2904 0.0195251
2916 0.0077967
2928 0.00433788
2940 0.00536794
2952 0.00503574
2964 0.00452151
2976 0.00713391
2988 0.00148338
3000 0.00370419
3012 0.00441941
3024 0.00515099
3036 0.00784409
3048 0.00508775
3060 0.010187
3072 0.00825553
3084 0.00624334
3096 0.0113645
3108 0.0058117
3120 0.0105398
3132 0.0136729
3144 0.00450246
3156 0.00376543
3168 0.00859836
3180 0.00656667
3192 0.0102581
3204 0.014127
3216 0.00177274
3228 0.00322622
3240 0.00222584
3252 0.00304075
3264 0.00698306
3276 0.010093
3288 0.000478389
3300 0.00249667
3312 0.006648
3324 0.00207824
3336 0.00557943
3348 0.00891023
3360 0.00333892
3372 0.00260976
3384 0.00594184
3396 0.00535059
3408 0.00624445
3420 0.00452406
3432 0.0080383
3444 0.0135389
3456 0.0141094
3468 0.0159563
3480 0.0215199
3487 0.000232744

File: BTO_390K_tth.xy
0.000000000000000000e+00 0.000366404
12 0.0126052
24 0.013464
36 0.0034493
48 0.00355944
60 0.00367451
72 0.00378321
84 0.00413537
96 0.00393674
108 0.00374481
120 0.00364427
132 0.00347955
144 0.00322834
156 0.00308433
168 0.00297098
180 0.00276335
192 0.00256285
204 0.0024386
216 0.00231019
228 0.00228345
240 0.00222077
252 0.00229177
264 0.00232873
276 0.002525
288 0.00269918
300 0.00228312
312 0.00214121
324 0.00310664
336 0.059175
348 0.0016305
360 0.00451182
372 0.000901033
384 0.00102307
396 0.000980895
408 0.00118478
420 0.00133909
432 0.00144565
444 0.00243558
456 0.00505523
468 0.0870945
480 0.021575
492 0.00366801
504 0.00188668
516 0.00198567
528 0.000696936
540 0.000245049
552 0.000696595
564 0.00193511
576 0.0700665
588 0.00475254
600 0.0012812
612 0.000877274
624 0.0023476
636 0.0018566
648 0.00262409
660 0.0192142
672 0.277825
684 0.00452846
696 0.0018748
708 0.000820691
720 0.00091895
732 0.00168263
744 0.0415591
756 0.00586508
768 0.00115665
780 0.00122812
792 0.00201879
804 0.00579126
816 0.179975
828 0.0186747
840 0.00310774
852 0.00127399
864 0.000851882
876 0.00054594
888 0.000548031
900 0.00056861
912 0.000532755
924 0.00134021
936 0.00717884
948 0.289365
960 0.0044248
972 0.00186311
984 0.00127663
996 0.00628129
1008 0.044005
1020 0.0012085
1032 0.00146783
1044 0.00620965
1056 0.127659
1068 0.016182
1080 0.00275269
1092 0.00248266
1104 0.0274007
1116 0.0388855
1128 0.00172238
1140 0.00117102
1152 0.00491063
1164 0.0324632
1176 0.00122624
1188 0.00101842
1200 0.00596908
1212 0.0240492
1224 0.00254672
1236 0.00487808
1248 0.0859801
1260 0.0448105
1272 0.00342308
1284 0.00105312
1296 0.00052579
1308 0.000466098
1320 0.00065057
1332 0.0139656
1344 0.0475121
1356 0.00154402
1368 0.00265467
1380 0.0422945
1392 0.00402504
1404 0.00392291
1416 0.0592522
1428 0.0507477
1440 0.00327176
1452 0.0051914
1464 0.0418538
1476 0.00299774
1488 0.0114123
1500 0.111999
1512 0.00589291
1524 0.00392687
1536 0.0315402
1548 0.00255888
1560 0.00260882
1572 0.1058
1584 0.00283916
1596 0.0011287
1608 0.000987775
1620 0.00147168
1632 0.00725908
1644 0.107254
1656 0.00450813
1668 0.00552472
1680 0.0179766
1692 0.00605539
1704 0.0574151
1716 0.0818725
1728 0.00632388
1740 0.0169262
1752 0.00602993
1764 0.000949093
1776 0.000520243
1788 0.00108099
1800 0.0123287
1812 0.0189198
1824 0.00771001
1836 0.0313085
1848 0.00908072
1860 0.0013955
1872 6.19289e-05
1884 0.000880651
1896 0.0282514
1908 0.00352353
1920 0.00575164
1932 0.0170916
1944 0.00493302
1956 0.0605337
1968 0.00676986
1980 0.019579
1992 0.018862
2004 0.00918753
2016 0.0452717
2028 0.00452286
2040 0.00380303
2052 0.00574996
2064 0.0344258
2076 0.0415024
2088 0.00307973
2100 0.00198533
2112 0.00819951
2124 0.0148242
2136 0.00647658
2148 0.0171177
2160 0.00681512
2172 0.0278833
2184 0.0165591
2196 0.0054898
2208 0.00680451
2220 0.0116775
2232 0.0290915
2244 0.00536391
2256 0.0144525
2268 0.0084245
2280 0.0244488
2292 0.00237237
2304 0.000294487
2316 0.000821469
2328 0.0129554
2340 0.00232634
2352 0.00651952
2364 0.00909079
2376 0.0427334
2388 0.00991818
2400 0.0111553
2412 0.00578391
2424 0.0154639
2436 0.00593895
2448 0.00965813
2460 0.0145118
2472 0.031969
2484 0.00534834
2496 0.00293313
2508 0.0105733
2520 0.0274099
2532 0.00451397
2544 0.00623842
2556 0.00408799
2568 0.00945041
2580 0.00850447
2592 0.00608032
2604 0.000885011
2616 0.00199807
2628 0.00794141
2640 0.0121257
2652 0.024095
2664 0.00234805
2676 0.00146124
2688 0.000000000000000000e+00
2700 0.00467144
2712 0.0065201
2724 0.0108365
2736 0.023209
2748 0.00534148
2760 0.00688941
2772 0.00902671
2784 0.0108853
2796 0.00507427
2808 0.00493493
2820 0.0103176
2832 0.000997415
2844 0.00299397
2856 0.00552623
2868 0.00446409
2880 0.00574501
2892 0.011433
2904 0.0180677
2916 0.00758015
2928 0.00309281
2940 0.00592091
2952 0.00401989
2964 0.00519921
2976 0.00633635
2988 0.00049448
3000 0.00102249
3012 0.00193475
3024 0.0055715
3036 0.00701098
3048 0.0034135
3060 0.00740361
3072 0.00839037
3084 0.0051361
3096 0.00916886
3108 0.00454105
3120 0.0076999
3132 0.012331
3144 0.00206326
3156 0.00206142
3168 0.00564111
3180 0.00560136
3192 0.00883075
3204 0.0121691
3216 0.00319349
3228 0.00257157
3240 0.00167439
3252 0.00222204
3264 0.00615925
3276 0.0085697
3288 0.00249291
3300 0.00323832
3312 0.00373982
3324 0.00527543
3336 0.0053074
3348 0.00816171
3360 0.00532987
3372 0.00221314
3384 0.00480585
3396 0.00613137
3408 0.00259852
3420 0.00426709
3432 0.00337531
3444 0.00321443
3456 0.0065022
3468 0.00585823
3480 0.00794401
3487 0.00515394

File: BTO_395K_tth.xy
0.000000000000000000e+00 0.00019316
12 0.0122339
24 0.0129787
36 0.00290465
48 0.00302424
60 0.00307067
72 0.0031767
84 0.00355609
96 0.00343925
108 0.00326248
120 0.00316695
132 0.00308082
144 0.00302433
156 0.00280614
168 0.00271
180 0.00258542
192 0.00244611
204 0.00232893
216 0.00226197
228 0.00224735
240 0.00222316
252 0.00223746
264 0.00235951
276 0.00247211
288 0.00267525
300 0.00237595
312 0.00205121
324 0.00304239
336 0.0577804
348 0.00149595
360 0.00423733
372 0.000803697
384 0.000850302
396 0.000773035
408 0.000798857
420 0.00106627
432 0.00124287
444 0.00202139
456 0.00478736
468 0.086742
480 0.0210645
492 0.00325801
504 0.00178028
516 0.0015875
528 0.000220578
540 0.000304876
552 0.000375549
564 0.00164937
576 0.070482
588 0.00440013
600 0.000999698
612 0.000686512
624 0.00193396
636 0.00164193
648 0.00246863
660 0.0188052
672 0.267958
684 0.004441
696 0.00194394
708 0.000879652
720 0.000864013
732 0.00132098
744 0.040442
756 0.00572967
768 0.00100633
780 0.00105021
792 0.0020122
804 0.00589567
816 0.177721
828 0.0184002
840 0.0032149
852 0.00112454
864 0.000821547
876 0.000499662
888 0.000863306
900 0.00047658
912 0.00038303
924 0.00122579
936 0.00742392
948 0.292345
960 0.00467686
972 0.00196451
984 0.00111542
996 0.00613496
1008 0.0423422
1020 0.00138652
1032 0.00141616
1044 0.00578843
1056 0.129388
1068 0.0156648
1080 0.00270542
1092 0.00240061
1104 0.0267148
1116 0.036836
1128 0.00125037
1140 0.00103586
1152 0.00492667
1164 0.0314377
1176 0.00141352
1188 0.00081394
1200 0.00571784
1212 0.0228925
1224 0.00220044
1236 0.0049191
1248 0.0839653
1260 0.0426773
1272 0.00368733
1284 0.0011133
1296 0.000515379
1308 0.000100867
1320 0.000762314
1332 0.0131785
1344 0.0464066
1356 0.00184327
1368 0.00253787
1380 0.0431433
1392 0.00377158
1404 0.00370147
1416 0.0580879
1428 0.0477017
1440 0.00353584
1452 0.00526452
1464 0.0406926
1476 0.00289953
1488 0.0113234
1500 0.115088
1512 0.00585671
1524 0.00389701
1536 0.0324368
1548 0.00277588
1560 0.00287454
1572 0.106515
1584 0.0028977
1596 0.00104422
1608 0.000304289
1620 0.00149012
1632 0.00739506
1644 0.108711
1656 0.00437528
1668 0.00562949
1680 0.0182784
1692 0.00572057
1704 0.0571591
1716 0.0764486
1728 0.0063301
1740 0.0168522
1752 0.00533846
1764 0.000914005
1776 0.000471729
1788 0.00103578
1800 0.0120519
1812 0.017622
1824 0.00700059
1836 0.0325689
1848 0.00834851
1860 0.00105422
1872 0.000279671
1884 0.000753887
1896 0.0279928
1908 0.0036982
1920 0.00540442
1932 0.0165521
1944 0.00444314
1956 0.0612628
1968 0.00649362
1980 0.0184295
1992 0.0175053
2004 0.0084501
2016 0.0459736
2028 0.00401377
2040 0.00326984
2052 0.00554699
2064 0.0338038
2076 0.0380559
2088 0.00268085
2100 0.00188235
2112 0.00758059
2124 0.0149818
2136 0.00643514
2148 0.016873
2160 0.0057497
2172 0.0270075
2184 0.0148052
2196 0.00527939
2208 0.00617743
2220 0.0103454
2232 0.0288625
2244 0.00451877
2256 0.0142823
2268 0.00861365
2280 0.0253676
2292 0.00237853
2304 0.000261702
2316 0.000208947
2328 0.012813
2340 0.0030091
2352 0.00691475
2364 0.00839539
2376 0.043777
2388 0.0096347
2400 0.0114628
2412 0.00552848
2424 0.0152111
2436 0.0062793
2448 0.00992796
2460 0.0138294
2472 0.0327443
2484 0.00577005
2496 0.00295027
2508 0.0100343
2520 0.0277575
2532 0.00451328
2544 0.0059788
2556 0.00399352
2568 0.00875609
2580 0.0080277
2592 0.00533365
2604 0.000919443
2616 0.000938897
2628 0.00822944
2640 0.0117733
2652 0.024645
2664 0.00240145
2676 0.000873298
2688 0.00024359
2700 0.00369088
2712 0.00675401
2724 0.0102182
2736 0.0234466
2748 0.00494257
2760 0.00630667
2772 0.00838554
2784 0.00969305
2796 0.00486479
2808 0.00411148
2820 0.00960399
2832 0.00052112
2844 0.00248669
2856 0.00523685
2868 0.00491972
2880 0.0052636
2892 0.0118258
2904 0.0177365
2916 0.00759458
2928 0.00396024
2940 0.00540162
2952 0.00353089
2964 0.00406509
2976 0.00835398
2988 0.00125695
3000 0.00137186
3012 0.00193134
3024 0.00451877
3036 0.00692008
3048 0.00336475
3060 0.0075488
3072 0.00789806
3084 0.00686985
3096 0.00959729
3108 0.00413675
3120 0.00966267
3132 0.0128775
3144 0.00161691
3156 0.00450476
3168 0.00687122
3180 0.00575419
3192 0.00896719
3204 0.0128407
3216 0.00247192
3228 0.00284979
3240 0.00228486
3252 0.00319508
3264 0.00422531
3276 0.00807149
3288 0.00111822
3300 0.00119954
3312 0.00488081
3324 0.00344184
3336 0.00580052
3348 0.00941515
3360 0.00515383
3372 0.00320976
3384 0.00447427
3396 0.00592203
3408 0.00480169
3420 0.00310348
3432 0.00173966
3444 0.00744201
3456 0.00664618
3468 0.00873058
3480 0.0123161
3487 0.0258781

File: BTO_400K_tth.xy
0.000000000000000000e+00 0.000249796
12 0.0124626
24 0.0133282
36 0.00332319
48 0.00342628
60 0.00357313
72 0.00363066
84 0.0039708
96 0.00377447
108 0.00364595
120 0.00345411
132 0.00331848
144 0.00318285
156 0.00295765
168 0.00281165
180 0.0026188
192 0.00236714
204 0.0023258
216 0.00213792
228 0.00214239
240 0.00211255
252 0.00216094
264 0.00228811
276 0.00251229
288 0.00256036
300 0.00224827
312 0.00202656
324 0.00302162
336 0.0570522
348 0.00149912
360 0.00421304
372 0.000715925
384 0.000709179
396 0.00082043
408 0.00100955
420 0.00114923
432 0.00138364
444 0.00205173
456 0.00508626
468 0.0864951
480 0.0210609
492 0.00338927
504 0.00191246
516 0.00168931
528 0.000511455
540 0.000380467
552 0.000557976
564 0.0016774
576 0.0707206
588 0.00442851
600 0.00105814
612 0.000790641
624 0.00200491
636 0.00169347
648 0.00231937
660 0.0187119
672 0.262237
684 0.00440013
696 0.00168762
708 0.000772347
720 0.000726396
732 0.00129598
744 0.0398789
756 0.00560357
768 0.000849103
780 0.000779183
792 0.00199379
804 0.0057376
816 0.175244
828 0.0181226
840 0.00304358
852 0.00113135
864 0.000640978
876 0.000460328
888 0.000703914
900 0.000320116
912 0.000288116
924 0.00118693
936 0.00722989
948 0.29432
960 0.00419346
972 0.00150251
984 0.00127244
996 0.00588221
1008 0.0414862
1020 0.00151153
1032 0.00145413
1044 0.00600001
1056 0.131157
1068 0.0154482
1080 0.0029659
1092 0.00241303
1104 0.0260813
1116 0.0359011
1128 0.00160452
1140 0.0011549
1152 0.00489474
1164 0.0310653
1176 0.00121455
1188 0.00115062
1200 0.00577169
1212 0.0222249
1224 0.00255305
1236 0.00505178
1248 0.0826846
1260 0.0419126
1272 0.00335714
1284 0.00141905
1296 0.000299202
1308 0.000347877
1320 0.000713726
1332 0.0127445
1344 0.0453592
1356 0.00168694
1368 0.00240615
1380 0.0435507
1392 0.00366481
1404 0.00378337
1416 0.0567634
1428 0.0455986
1440 0.00331435
1452 0.00523991
1464 0.0406673
1476 0.0027551
1488 0.0113294
1500 0.117602
1512 0.00560586
1524 0.00413955
1536 0.0331754
1548 0.00252478
1560 0.00267097
1572 0.106339
1584 0.00256928
1596 0.000775422
1608 0.000203601
1620 0.0011126
1632 0.00687942
1644 0.109352
1656 0.00402193
1668 0.00540612
1680 0.0179159
1692 0.00566302
1704 0.0566777
1716 0.0727736
1728 0.00629636
1740 0.0172661
1752 0.00543793
1764 0.000674539
1776 0.000444862
1788 0.000845472
1800 0.0113528
1812 0.0169649
1824 0.00703894
1836 0.0339637
1848 0.00830803
1860 0.000951325
1872 0.000361554
1884 0.00115935
1896 0.0276607
1908 0.00341588
1920 0.00539833
1932 0.0163201
1944 0.00501327
1956 0.0623788
1968 0.00626841
1980 0.0187071
1992 0.0171224
2004 0.00887302
2016 0.0467238
2028 0.00467128
2040 0.00428828
2052 0.00575313
2064 0.0334465
2076 0.037777
2088 0.00356617
2100 0.00209751
2112 0.00805586
2124 0.0161133
2136 0.00621571
2148 0.0174777
2160 0.00603878
2172 0.0271452
2184 0.0145767
2196 0.00539821
2208 0.00644417
2220 0.0110909
2232 0.0288495
2244 0.00485748
2256 0.0147833
2268 0.00821724
2280 0.026268
2292 0.00283727
2304 0.000250108
2316 0.000749692
2328 0.0129473
2340 0.00274894
2352 0.00696605
2364 0.00828287
2376 0.0442723
2388 0.00940219
2400 0.0115681
2412 0.00554092
2424 0.0149896
2436 0.00579727
2448 0.00983275
2460 0.0138451
2472 0.0334816
2484 0.00551896
2496 0.0029157
2508 0.0098271
2520 0.0277711
2532 0.0046154
2544 0.00556226
2556 0.00411012
2568 0.00885945
2580 0.00795997
2592 0.00551518
2604 0.000711857
2616 0.00170551
2628 0.00862125
2640 0.010869
2652 0.0252486
2664 0.0020164
2676 0.00110702
2688 0.000476021
2700 0.00394933
2712 0.00698438
2724 0.00979864
2736 0.023034
2748 0.00459791
2760 0.00663444
2772 0.00928832
2784 0.00955057
2796 0.0048365
2808 0.00395736
2820 0.0101061
2832 0.00124929
2844 0.00203461
2856 0.00563157
2868 0.00365105
2880 0.00574209
2892 0.0118
2904 0.0154163
2916 0.00776976
2928 0.00244431
2940 0.00542314
2952 0.00331952
2964 0.00383948
2976 0.00689566
2988 0.001399
3000 0.000990889
3012 0.00264253
3024 0.00356219
3036 0.00722474
3048 0.00352894
3060 0.00709569
3072 0.00596272
3084 0.00458403
3096 0.00870218
3108 0.00529309
3120 0.00837595
3132 0.0123159
3144 0.00338517
3156 0.0026949
3168 0.00473184
3180 0.00544581
3192 0.00997974
3204 0.0139901
3216 0.00452011
3228 0.00317548
3240 0.0025282
3252 0.00422235
3264 0.00591279
3276 0.0107457
3288 0.00296378
3300 0.00274085
3312 0.00596474
3324 0.0043201
3336 0.00845408
3348 0.00868467
3360 0.00704781
3372 0.00568467
3384 0.00692708
3396 0.00398111
3408 0.00405365
3420 0.00396673
3432 0.00612836
3444 0.00801107
3456 0.00675161
3468 0.0107057
3480 0.00622196
3487 0.00644237