Folder: pub-Maffettone_2021_04/constrainednmf/example_data/BaTiO3_xrd_ramp (part 7)

File: BTO_305K_tth.xy
0.000000000000000000e+00 0.000275905
12 0.0116804
24 0.0125218
36 0.00268803
48 0.00279584
60 0.00295329
72 0.003146
84 0.00358402
96 0.00348492
108 0.00336274
120 0.00336606
132 0.00334975
144 0.00330043
156 0.00312368
168 0.00306525
180 0.00293459
192 0.00281938
204 0.00271865
216 0.00261601
228 0.00260516
240 0.00251282
252 0.00255493
264 0.00259489
276 0.00283147
288 0.00300713
300 0.00269317
312 0.00248781
324 0.0034236
336 0.0715225
348 0.00180744
360 0.00458947
372 0.00114191
384 0.00102214
396 0.001051
408 0.00110556
420 0.00135309
432 0.00146837
444 0.00232141
456 0.00501181
468 0.083281
480 0.0246987
492 0.003529
504 0.00185846
516 0.00193586
528 0.000372277
540 0.000425566
552 0.000482906
564 0.00176446
576 0.0605663
588 0.00495083
600 0.001058
612 0.000715961
624 0.0021597
636 0.00180653
648 0.00260715
660 0.0192788
672 0.335038
684 0.00450574
696 0.0020269
708 0.00112972
720 0.000946871
732 0.00151715
744 0.0458329
756 0.00792114
768 0.0010813
780 0.00119779
792 0.00204939
804 0.00550018
816 0.182351
828 0.0231472
840 0.00344394
852 0.00130198
864 0.000889794
876 0.000387605
888 0.000788493
900 0.000432175
912 0.00063522
924 0.00117683
936 0.00727309
948 0.292838
960 0.00504948
972 0.00156187
984 0.00142633
996 0.006709
1008 0.0598059
1020 0.00117398
1032 0.00146209
1044 0.00551415
1056 0.122657
1068 0.0243187
1080 0.002751
1092 0.00235774
1104 0.0330276
1116 0.0768741
1128 0.00111658
1140 0.000977934
1152 0.00447427
1164 0.0547153
1176 0.000947984
1188 0.000886471
1200 0.00597314
1212 0.0325252
1224 0.00207473
1236 0.0046725
1248 0.0914656
1260 0.0855456
1272 0.00375969
1284 0.00104725
1296 0.000556687
1308 0.000476132
1320 0.000666224
1332 0.0177074
1344 0.0347874
1356 0.00231381
1368 0.00298655
1380 0.0400462
1392 0.00620442
1404 0.00375778
1416 0.060182
1428 0.107987
1440 0.00426592
1452 0.00549239
1464 0.0445333
1476 0.00339038
1488 0.0127682
1500 0.0813813
1512 0.00820827
1524 0.00454101
1536 0.0260849
1548 0.00425204
1560 0.00321467
1572 0.097438
1584 0.00427071
1596 0.00151517
1608 0.00131684
1620 0.00180262
1632 0.00743386
1644 0.0785088
1656 0.00562517
1668 0.00649566
1680 0.0165352
1692 0.00662814
1704 0.0600749
1716 0.120209
1728 0.00810047
1740 0.0174
1752 0.0151385
1764 0.00116285
1776 0.000683788
1788 0.000916863
1800 0.0124384
1812 0.0299261
1824 0.00815188
1836 0.0335416
1848 0.0203855
1860 0.00111159
1872 0.000187124
1884 0.0010264
1896 0.0255669
1908 0.00764755
1920 0.00683757
1932 0.0165893
1944 0.00480406
1956 0.0517869
1968 0.0104174
1980 0.0203277
1992 0.0273342
2004 0.00831633
2016 0.0466124
2028 0.00659171
2040 0.00379844
2052 0.00844835
2064 0.0368098
2076 0.0630021
2088 0.00295664
2100 0.00158238
2112 0.0110332
2124 0.0121829
2136 0.0118792
2148 0.0161302
2160 0.0127663
2172 0.0269334
2184 0.0262844
2196 0.00571356
2208 0.0122645
2220 0.012012
2232 0.0174154
2244 0.00634105
2256 0.0139669
2268 0.0119244
2280 0.0167719
2292 0.00557699
2304 0.000259184
2316 0.000336378
2328 0.0108402
2340 0.00288843
2352 0.00607443
2364 0.0109098
2376 0.0414313
2388 0.0203943
2400 0.0122143
2412 0.0114266
2424 0.0138102
2436 0.0115408
2448 0.00927895
2460 0.0178726
2472 0.0286002
2484 0.011717
2496 0.00340689
2508 0.0126138
2520 0.0286049
2532 0.00544622
2544 0.00751881
2556 0.00465113
2568 0.0105875
2580 0.00974574
2592 0.0123558
2604 0.00158813
2616 0.00214089
2628 0.00802295
2640 0.0141653
2652 0.0208061
2664 0.00492611
2676 0.00145174
2688 0.000617754
2700 0.00359256
2712 0.00747793
2724 0.0146054
2736 0.0222242
2748 0.0100952
2760 0.00812529
2772 0.00978532
2784 0.0144514
2796 0.00442839
2808 0.0078891
2820 0.0119179
2832 0.000833636
2844 0.00286845
2856 0.00518472
2868 0.0104094
2880 0.00577144
2892 0.0129998
2904 0.0226163
2916 0.0077566
2928 0.00577856
2940 0.00561752
2952 0.00403438
2964 0.00620729
2976 0.00652306
2988 0.00299722
3000 0.00119933
3012 0.0020045
3024 0.00660993
3036 0.00726766
3048 0.00649727
3060 0.0104429
3072 0.00913004
3084 0.00735405
3096 0.0135848
3108 0.00780588
3120 0.0113595
3132 0.0121035
3144 0.0049531
3156 0.00432954
3168 0.00836236
3180 0.0074046
3192 0.0133072
3204 0.0174012
3216 0.00504881
3228 0.00483674
3240 0.00204941
3252 0.00368913
3264 0.00464656
3276 0.00781243
3288 0.00164742
3300 0.001948
3312 0.00344542
3324 0.00584181
3336 0.00409333
3348 0.00943508
3360 0.00389628
3372 0.00394294
3384 0.00709011
3396 0.00716049
3408 0.00294612
3420 0.00562908
3432 0.00716376
3444 0.00965498
3456 0.012049
3468 0.0124135
3480 0.0277059
3487 0.0002372

File: BTO_310K_tth.xy
0.000000000000000000e+00 0.000790119
12 0.0126467
24 0.0135034
36 0.00357434
48 0.00366536
60 0.0038288
72 0.00403239
84 0.00439448
96 0.00421092
108 0.004082
120 0.00403978
132 0.00385201
144 0.00375111
156 0.00360279
168 0.00351444
180 0.00328888
192 0.0031893
204 0.00304535
216 0.00291466
228 0.00285129
240 0.00285223
252 0.00286217
264 0.00297599
276 0.0030442
288 0.00322626
300 0.00294184
312 0.00276515
324 0.00370065
336 0.0720137
348 0.00221862
360 0.00504032
372 0.00143361
384 0.00145803
396 0.0014424
408 0.00159089
420 0.00181691
432 0.00193874
444 0.00276474
456 0.00547051
468 0.084259
480 0.0251755
492 0.00400188
504 0.00244879
516 0.00226352
528 0.000886969
540 0.000768449
552 0.000865306
564 0.00223
576 0.0615259
588 0.00531855
600 0.00164956
612 0.00122715
624 0.00257939
636 0.0021433
648 0.00281709
660 0.0199905
672 0.340836
684 0.00495725
696 0.00249374
708 0.00158365
720 0.00142066
732 0.00219775
744 0.0471548
756 0.00819222
768 0.001623
780 0.00158072
792 0.00243784
804 0.00631067
816 0.185325
828 0.0234681
840 0.00372265
852 0.00175846
864 0.0012868
876 0.00110448
888 0.0011348
900 0.000728055
912 0.00117403
924 0.00168454
936 0.00763
948 0.288425
960 0.00556896
972 0.0019745
984 0.00211342
996 0.00707837
1008 0.0601081
1020 0.00185809
1032 0.00192379
1044 0.00611293
1056 0.120796
1068 0.0242896
1080 0.00327608
1092 0.00296621
1104 0.0344294
1116 0.0762451
1128 0.00202743
1140 0.00144882
1152 0.00502411
1164 0.0535332
1176 0.00141339
1188 0.00146344
1200 0.0068468
1212 0.0330788
1224 0.00279765
1236 0.00516717
1248 0.0933371
1260 0.0839632
1272 0.00427298
1284 0.00155075
1296 0.00112479
1308 0.000968658
1320 0.00125751
1332 0.0183897
1344 0.0369221
1356 0.0023199
1368 0.00307402
1380 0.0396544
1392 0.00628516
1404 0.00442269
1416 0.0606307
1428 0.107222
1440 0.00427581
1452 0.00588697
1464 0.0441067
1476 0.00329656
1488 0.01318
1500 0.0818653
1512 0.0081052
1524 0.00461903
1536 0.0258043
1548 0.00405128
1560 0.00327788
1572 0.0984272
1584 0.00421355
1596 0.0011586
1608 0.00156714
1620 0.00183348
1632 0.00788836
1644 0.078941
1656 0.00571185
1668 0.00664043
1680 0.0164791
1692 0.00680865
1704 0.0596519
1716 0.122093
1728 0.00838791
1740 0.017058
1752 0.0148018
1764 0.00179544
1776 0.00124525
1788 0.00138988
1800 0.013278
1812 0.0305922
1824 0.00875357
1836 0.0327142
1848 0.0198269
1860 0.00182384
1872 0.000558523
1884 0.00117748
1896 0.0266508
1908 0.00836909
1920 0.00706877
1932 0.0172763
1944 0.00581996
1956 0.0524546
1968 0.0107651
1980 0.0209533
1992 0.0281637
2004 0.00854479
2016 0.0464333
2028 0.00692868
2040 0.0042387
2052 0.00934676
2064 0.0375032
2076 0.0653813
2088 0.00378985
2100 0.00191269
2112 0.011872
2124 0.0121842
2136 0.0118343
2148 0.0166663
2160 0.0135905
2172 0.0278618
2184 0.026843
2196 0.00605973
2208 0.0124441
2220 0.012767
2232 0.0185066
2244 0.00685534
2256 0.0142344
2268 0.012852
2280 0.0171544
2292 0.00553781
2304 0.000948999
2316 0.000813584
2328 0.0116627
2340 0.00336929
2352 0.00597907
2364 0.0117159
2376 0.0412887
2388 0.0202946
2400 0.0126201
2412 0.0108448
2424 0.0133756
2436 0.0112136
2448 0.009351
2460 0.0186418
2472 0.0280481
2484 0.0117308
2496 0.00408519
2508 0.0127939
2520 0.0295381
2532 0.00618178
2544 0.00707941
2556 0.00475248
2568 0.0109997
2580 0.00930967
2592 0.0128039
2604 0.00182098
2616 0.00177913
2628 0.00749241
2640 0.0146055
2652 0.0208437
2664 0.00443319
2676 0.00163018
2688 0.00186752
2700 0.00411736
2712 0.00787391
2724 0.0152146
2736 0.0226831
2748 0.00976748
2760 0.00815444
2772 0.0103007
2784 0.0154878
2796 0.00489709
2808 0.00791111
2820 0.0122785
2832 0.00103121
2844 0.00394075
2856 0.00618653
2868 0.0112138
2880 0.00667883
2892 0.0145901
2904 0.0241767
2916 0.0081934
2928 0.00630617
2940 0.00620846
2952 0.00497795
2964 0.00724649
2976 0.00716861
2988 0.00420808
3000 0.00225987
3012 0.00348345
3024 0.00692739
3036 0.00671848
3048 0.00480715
3060 0.00933029
3072 0.00783185
3084 0.00854365
3096 0.0110437
3108 0.00718517
3120 0.0115816
3132 0.0110987
3144 0.00449502
3156 0.00423195
3168 0.00706242
3180 0.00649248
3192 0.0121333
3204 0.016242
3216 0.00486807
3228 0.00477527
3240 0.00280745
3252 0.00400654
3264 0.00680782
3276 0.00757061
3288 0.00298765
3300 0.00151896
3312 0.00537916
3324 0.00498201
3336 0.00460888
3348 0.008271
3360 0.00371153
3372 0.00338324
3384 0.0062205
3396 0.00263748
3408 0.00611835
3420 0.00480383
3432 0.0047549
3444 0.0112763
3456 0.0165203
3468 0.00591285
3480 0.0129424
3487 0.0171979

File: BTO_315K_tth.xy
0.000000000000000000e+00 0.000684277
12 0.0127102
24 0.0136593
36 0.00357252
48 0.00374002
60 0.00386588
72 0.0039709
84 0.00436058
96 0.00418576
108 0.00406988
120 0.00399507
132 0.00386481
144 0.00369567
156 0.00351554
168 0.00335682
180 0.00322613
192 0.00306467
204 0.0029078
216 0.00276587
228 0.00273991
240 0.002591
252 0.00274432
264 0.00280065
276 0.00301306
288 0.00317112
300 0.0028008
312 0.00262164
324 0.0036472
336 0.0720103
348 0.00212183
360 0.00487682
372 0.0013713
384 0.00138335
396 0.00131787
408 0.00142898
420 0.0018642
432 0.00175364
444 0.00276208
456 0.00539725
468 0.0850202
480 0.0249093
492 0.00390215
504 0.00220464
516 0.00228557
528 0.00088598
540 0.000671927
552 0.000888772
564 0.00209228
576 0.0619953
588 0.0054081
600 0.00148857
612 0.00117883
624 0.00245557
636 0.0022747
648 0.00282713
660 0.0201068
672 0.343205
684 0.00499113
696 0.00258975
708 0.00134659
720 0.00123397
732 0.00178937
744 0.0477621
756 0.0079735
768 0.00134947
780 0.00124927
792 0.00243182
804 0.00594504
816 0.18758
828 0.0232824
840 0.00361384
852 0.00151284
864 0.00145051
876 0.000962984
888 0.00119625
900 0.000775257
912 0.000855249
924 0.00184113
936 0.00755215
948 0.285964
960 0.00550738
972 0.00207121
984 0.00164562
996 0.00675857
1008 0.0600091
1020 0.00187114
1032 0.00182819
1044 0.00630281
1056 0.118617
1068 0.0238322
1080 0.00324311
1092 0.00252443
1104 0.034751
1116 0.0746958
1128 0.00204225
1140 0.00137165
1152 0.00490167
1164 0.0520578
1176 0.00167712
1188 0.0015337
1200 0.00687878
1212 0.0330042
1224 0.00262409
1236 0.00513881
1248 0.0943834
1260 0.0822438
1272 0.0042957
1284 0.00142517
1296 0.000337275
1308 0.000812013
1320 0.00114628
1332 0.018679
1344 0.0380711
1356 0.00250378
1368 0.00312131
1380 0.0394057
1392 0.00622872
1404 0.00451065
1416 0.0614264
1428 0.106207
1440 0.0041015
1452 0.00572991
1464 0.0434095
1476 0.00306808
1488 0.0130959
1500 0.0822373
1512 0.00828899
1524 0.00442984
1536 0.0249409
1548 0.00388602
1560 0.00307945
1572 0.0995444
1584 0.00377256
1596 0.0014102
1608 0.00127713
1620 0.00156941
1632 0.00759734
1644 0.0798116
1656 0.00531641
1668 0.00617156
1680 0.0160235
1692 0.00660678
1704 0.0599495
1716 0.123695
1728 0.00795918
1740 0.0164231
1752 0.014031
1764 0.00110838
1776 0.000879956
1788 0.00119879
1800 0.0125834
1812 0.0303406
1824 0.00876114
1836 0.0310204
1848 0.0186916
1860 0.00178177
1872 0.000762892
1884 0.00162442
1896 0.0270048
1908 0.00801556
1920 0.00705828
1932 0.0171564
1944 0.0051735
1956 0.0522586
1968 0.0108093
1980 0.021182
1992 0.028257
2004 0.00899593
2016 0.0457521
2028 0.00668566
2040 0.00425782
2052 0.00947685
2064 0.0379305
2076 0.0653951
2088 0.00363117
2100 0.00194077
2112 0.0119777
2124 0.0119851
2136 0.0118896
2148 0.0162389
2160 0.0132592
2172 0.0283689
2184 0.0270964
2196 0.00636499
2208 0.013103
2220 0.0130585
2232 0.0191469
2244 0.00688941
2256 0.0139805
2268 0.0135317
2280 0.0172114
2292 0.00556564
2304 0.000804032
2316 0.000835568
2328 0.0117306
2340 0.00334844
2352 0.00623607
2364 0.0118985
2376 0.0417081
2388 0.0197454
2400 0.0124964
2412 0.0114037
2424 0.0137618
2436 0.0112584
2448 0.00978494
2460 0.0178195
2472 0.0275263
2484 0.0111944
2496 0.00369147
2508 0.0130017
2520 0.0287981
2532 0.00568889
2544 0.00726853
2556 0.0046193
2568 0.0112558
2580 0.00927489
2592 0.0128067
2604 0.000526937
2616 0.00208033
2628 0.00876291
2640 0.0152252
2652 0.0204746
2664 0.00448666
2676 0.00170011
2688 0.00102438
2700 0.00517526
2712 0.00822156
2724 0.0154983
2736 0.0224505
2748 0.00949179
2760 0.0085318
2772 0.010066
2784 0.0147626
2796 0.00463812
2808 0.0069758
2820 0.0109358
2832 0.00119767
2844 0.00314464
2856 0.00682856
2868 0.0116163
2880 0.0066749
2892 0.0124767
2904 0.0243795
2916 0.00767369
2928 0.00619688
2940 0.00593407
2952 0.00470156
2964 0.00740965
2976 0.00596934
2988 0.00371796
3000 0.0024874
3012 0.00378717
3024 0.00633001
3036 0.00633725
3048 0.00331938
3060 0.0108301
3072 0.00901097
3084 0.00774474
3096 0.0119244
3108 0.00606471
3120 0.00983226
3132 0.010846
3144 0.00386481
3156 0.00374929
3168 0.00783358
3180 0.00669937
3192 0.0116837
3204 0.0138446
3216 0.00448587
3228 0.00464291
3240 0.000191729
3252 0.00317163
3264 0.00696019
3276 0.00650677
3288 0.0013719
3300 0.00376099
3312 0.00581683
3324 0.00299918
3336 0.00448414
3348 0.00797482
3360 0.00738821
3372 0.00690712
3384 0.00535813
3396 0.00578916
3408 0.00222125
3420 0.000489095
3432 0.00356973
3444 0.0063929
3456 0.00813544
3468 0.00562931
3480 0.0143715
3487 0.0220112

File: BTO_320K_tth.xy
0.000000000000000000e+00 0.000644942
12 0.0123716
24 0.0130269
36 0.00276082
48 0.00286028
60 0.00285961
72 0.0030729
84 0.00348506
96 0.00348701
108 0.00336077
120 0.00337868
132 0.00343952
144 0.00338417
156 0.00331756
168 0.0033217
180 0.00322563
192 0.00311066
204 0.00295228
216 0.00297375
228 0.00292914
240 0.00300009
252 0.00302677
264 0.00312373
276 0.00321559
288 0.00355919
300 0.0031574
312 0.00283737
324 0.00383484
336 0.0718246
348 0.0021418
360 0.00501658
372 0.00139726
384 0.0013314
396 0.00134722
408 0.00140154
420 0.00156613
432 0.00178555
444 0.00258013
456 0.00509312
468 0.084928
480 0.0246845
492 0.00363991
504 0.001955
516 0.00191449
528 0.000493282
540 0.000414781
552 0.000578753
564 0.0018246
576 0.0621493
588 0.00525982
600 0.0013723
612 0.000817533
624 0.00222526
636 0.00191463
648 0.00272847
660 0.0199975
672 0.345114
684 0.00505285
696 0.00239944
708 0.00131875
720 0.00109072
732 0.00185364
744 0.0477984
756 0.00798191
768 0.00144349
780 0.00122722
792 0.00232672
804 0.00570732
816 0.189156
828 0.022951
840 0.00351789
852 0.00157063
864 0.00112712
876 0.000894436
888 0.000972608
900 0.000648729
912 0.000737375
924 0.00145167
936 0.00726512
948 0.283314
960 0.00501268
972 0.00150997
984 0.0014779
996 0.00690343
1008 0.0593991
1020 0.00145595
1032 0.00172689
1044 0.00609129
1056 0.116472
1068 0.022961
1080 0.00297909
1092 0.00254755
1104 0.0348796
1116 0.0728384
1128 0.00163581
1140 0.00109772
1152 0.00475045
1164 0.0502843
1176 0.00105383
1188 0.00072617
1200 0.00625626
1212 0.0321367
1224 0.00237051
1236 0.00494952
1248 0.0950253
1260 0.0800344
1272 0.00380126
1284 0.00121907
1296 0.00061171
1308 0.000583411
1320 0.00109741
1332 0.0190042
1344 0.0398638
1356 0.00218332
1368 0.00326172
1380 0.0388613
1392 0.00600161
1404 0.00435212
1416 0.0616946
1428 0.104679
1440 0.00441668
1452 0.00605755
1464 0.0435095
1476 0.00340394
1488 0.0132966
1500 0.0837383
1512 0.00831855
1524 0.0050216
1536 0.0248555
1548 0.00419991
1560 0.00368429
1572 0.100652
1584 0.00422039
1596 0.00159749
1608 0.00153895
1620 0.00236894
1632 0.00812074
1644 0.0813876
1656 0.0059762
1668 0.0069252
1680 0.0163236
1692 0.00696023
1704 0.060309
1716 0.124656
1728 0.00839662
1740 0.0158906
1752 0.0137351
1764 0.00198033
1776 0.00115221
1788 0.00154746
1800 0.0131428
1812 0.0302327
1824 0.00875581
1836 0.0298077
1848 0.018359
1860 0.00151686
1872 0.000730944
1884 0.0011022
1896 0.0276386
1908 0.00782643
1920 0.0072461
1932 0.0172565
1944 0.00515824
1956 0.0519698
1968 0.0105936
1980 0.0210871
1992 0.0273587
2004 0.00897439
2016 0.0442387
2028 0.00602755
2040 0.00351477
2052 0.00862352
2064 0.0373974
2076 0.064929
2088 0.00309277
2100 0.00180497
2112 0.0119658
2124 0.0112314
2136 0.0108486
2148 0.0160812
2160 0.0121455
2172 0.0284057
2184 0.0268388
2196 0.00578645
2208 0.0124139
2220 0.0125228
2232 0.0197776
2244 0.00626183
2256 0.013704
2268 0.0129619
2280 0.0173709
2292 0.00520082
2304 0.000476406
2316 0.000984264
2328 0.012536
2340 0.00337215
2352 0.00596278
2364 0.011804
2376 0.0416759
2388 0.0195566
2400 0.012847
2412 0.0110659
2424 0.0141177
2436 0.0113595
2448 0.00973619
2460 0.0187128
2472 0.0274937
2484 0.0108874
2496 0.00395403
2508 0.0137668
2520 0.0293716
2532 0.0061511
2544 0.00777216
2556 0.00516325
2568 0.0112658
2580 0.00932103
2592 0.0125968
2604 0.00156106
2616 0.00245594
2628 0.00764134
2640 0.0150533
2652 0.0205722
2664 0.00469336
2676 0.00222714
2688 0.00108706
2700 0.0046985
2712 0.00742314
2724 0.0157663
2736 0.0224262
2748 0.00934867
2760 0.00820028
2772 0.00897452
2784 0.0157689
2796 0.00319293
2808 0.00671196
2820 0.01125
2832 0.000928218
2844 0.00310597
2856 0.00474562
2868 0.0111601
2880 0.00577392
2892 0.0114569
2904 0.0236483
2916 0.00715083
2928 0.00542577
2940 0.00474301
2952 0.00472341
2964 0.00700933
2976 0.0078999
2988 0.00280379
3000 0.00235474
3012 0.00197606
3024 0.00833011
3036 0.00644404
3048 0.00452931
3060 0.0104251
3072 0.00877542
3084 0.0077742
3096 0.0123574
3108 0.00752037
3120 0.0128005
3132 0.0112269
3144 0.00427741
3156 0.00405018
3168 0.0093253
3180 0.00773297
3192 0.0146118
3204 0.0157074
3216 0.00588769
3228 0.00494133
3240 0.00405572
3252 0.00328393
3264 0.00737439
3276 0.00399461
3288 0.000634363
3300 0.00369329
3312 0.00569018
3324 0.00401189
3336 0.00634037
3348 0.00811017
3360 0.00482783
3372 0.00208076
3384 0.00598381
3396 0.00407115
3408 0.00675596
3420 0.00442767
3432 0.00340371
3444 0.0068386
3456 0.0163795
3468 0.00907594
3480 0.0057045
3487 0.0160555

File: BTO_325K_tth.xy
0.000000000000000000e+00 0.00150937
12 0.0128604
24 0.0133625
36 0.00285079
48 0.00287139
60 0.00289051
72 0.00303953
84 0.00353034
96 0.00351881
108 0.0035302
120 0.00361124
132 0.00368309
144 0.00367842
156 0.00374709
168 0.00376203
180 0.00371353
192 0.00369221
204 0.00361715
216 0.00358361
228 0.00362961
240 0.00361407
252 0.0036928
264 0.00381759
276 0.00395187
288 0.0042139
300 0.00384016
312 0.00350485
324 0.00450807
336 0.0722147
348 0.00278642
360 0.00554103
372 0.00191709
384 0.0018149
396 0.00183416
408 0.00177657
420 0.00194231
432 0.00205067
444 0.00306811
456 0.00557515
468 0.0859453
480 0.0248861
492 0.00404376
504 0.00212386
516 0.0024221
528 0.000929949
540 0.000564063
552 0.00101322
564 0.00229692
576 0.0633514
588 0.00556119
600 0.00170552
612 0.001284
624 0.00292335
636 0.00220951
648 0.0031278
660 0.0207151
672 0.346273
684 0.00529666
696 0.00263113
708 0.0018344
720 0.00175777
732 0.00237924
744 0.0486194
756 0.00837464
768 0.0020311
780 0.00194348
792 0.00314888
804 0.00652497
816 0.191064
828 0.0233035
840 0.00404048
852 0.00215017
864 0.0017998
876 0.00118207
888 0.00145532
900 0.00117166
912 0.00117261
924 0.00189731
936 0.00785805
948 0.280952
960 0.00555887
972 0.00232271
984 0.00188348
996 0.00726017
1008 0.0594779
1020 0.00166725
1032 0.00190206
1044 0.00601817
1056 0.115412
1068 0.0226103
1080 0.00272762
1092 0.0022427
1104 0.0350469
1116 0.0703781
1128 0.00154641
1140 0.00110322
1152 0.00454064
1164 0.0488069
1176 0.0012646
1188 0.000865345
1200 0.00643151
1212 0.0325268
1224 0.0026523
1236 0.00479586
1248 0.0957958
1260 0.0774327
1272 0.00351099
1284 0.00138019
1296 0.000435092
1308 0.00081281
1320 0.00133607
1332 0.0196892
1344 0.0414347
1356 0.00230087
1368 0.00334848
1380 0.0391072
1392 0.00610722
1404 0.00463466
1416 0.0623479
1428 0.102598
1440 0.00497117
1452 0.00622837
1464 0.0432877
1476 0.00399576
1488 0.0140438
1500 0.0848683
1512 0.00897091
1524 0.00588011
1536 0.0257775
1548 0.00460754
1560 0.00434726
1572 0.102589
1584 0.0049715
1596 0.0025753
1608 0.0022827
1620 0.00303544
1632 0.00872113
1644 0.0830454
1656 0.00652071
1668 0.00732605
1680 0.0169475
1692 0.00747157
1704 0.0606715
1716 0.125264
1728 0.00854397
1740 0.0162491
1752 0.0132021
1764 0.00198297
1776 0.00140057
1788 0.00222727
1800 0.0133829
1812 0.0300542
1824 0.00907991
1836 0.0291681
1848 0.0175392
1860 0.00185576
1872 0.000741718
1884 0.000757198
1896 0.0280087
1908 0.0074782
1920 0.0066195
1932 0.0173789
1944 0.00504969
1956 0.0522032
1968 0.0094405
1980 0.0206968
1992 0.0269143
2004 0.00861113
2016 0.0431159
2028 0.00638735
2040 0.0032069
2052 0.00767246
2064 0.036936
2076 0.0646338
2088 0.00309698
2100 0.000931063
2112 0.0115188
2124 0.0104046
2136 0.0101411
2148 0.0157846
2160 0.0115989
2172 0.0283374
2184 0.0270229
2196 0.00590375
2208 0.0112668
2220 0.0125053
2232 0.0205938
2244 0.00625216
2256 0.0135894
2268 0.0126871
2280 0.0173277
2292 0.00494485
2304 0.000923269
2316 0.000449774
2328 0.0120586
2340 0.00390513
2352 0.00602921
2364 0.0121842
2376 0.0417154
2388 0.0189353
2400 0.0125203
2412 0.0110862
2424 0.014266
2436 0.0112399
2448 0.0100792
2460 0.019194
2472 0.0273633
2484 0.0108624
2496 0.0040904
2508 0.0137797
2520 0.0291702
2532 0.00606457
2544 0.00819818
2556 0.00486055
2568 0.0125354
2580 0.00993112
2592 0.0130685
2604 0.00220156
2616 0.00266659
2628 0.0084083
2640 0.0152463
2652 0.020392
2664 0.0037907
2676 0.00178046
2688 0.0010198
2700 0.00468843
2712 0.00680656
2724 0.015144
2736 0.0225754
2748 0.00869549
2760 0.00836223
2772 0.00937894
2784 0.0153578
2796 0.00362966
2808 0.00630474
2820 0.01072
2832 0.000593121
2844 0.00281229
2856 0.00556816
2868 0.00948011
2880 0.00552096
2892 0.0122891
2904 0.0242916
2916 0.0070208
2928 0.00625568
2940 0.00527821
2952 0.00420124
2964 0.00793585
2976 0.00771957
2988 0.00242987
3000 0.00255195
3012 0.0032728
3024 0.00789606
3036 0.00920306
3048 0.00463802
3060 0.0106148
3072 0.00853473
3084 0.00864578
3096 0.0140816
3108 0.00957098
3120 0.0130275
3132 0.0127777
3144 0.00568501
3156 0.00631476
3168 0.0111918
3180 0.00868757
3192 0.0145598
3204 0.0172204
3216 0.00554941
3228 0.00768267
3240 0.00280043
3252 0.00456127
3264 0.00640855
3276 0.00424826
3288 0.00230763
3300 0.00236821
3312 0.00531529
3324 0.00544035
3336 0.00460838
3348 0.00917399
3360 0.00491028
3372 0.00403919
3384 0.00636357
3396 0.00529622
3408 0.00633438
3420 0.00605945
3432 0.00994241
3444 0.0138581
3456 0.0238417
3468 0.0180701
3480 0.0224936
3487 7.702e-05