Folder: pub-Maffettone_2021_04/constrainednmf/example_data/BaTiO3_xrd_ramp (part 12)

File: BTO_430K_tth.xy
0.000000000000000000e+00 0.00025794
12 0.0119117
24 0.012624
36 0.00294379
48 0.00301337
60 0.00311204
72 0.00324111
84 0.00360768
96 0.0034292
108 0.00326721
120 0.00320333
132 0.00310601
144 0.0029891
156 0.00283297
168 0.00267463
180 0.00264268
192 0.00245541
204 0.00231334
216 0.00222987
228 0.002194
240 0.0022459
252 0.00231328
264 0.00239778
276 0.00254943
288 0.00275047
300 0.00233128
312 0.00217837
324 0.00305404
336 0.0486015
348 0.00151932
360 0.00419536
372 0.000907251
384 0.000985374
396 0.000916046
408 0.00103062
420 0.00123185
432 0.00139322
444 0.0023339
456 0.00466895
468 0.0825671
480 0.0192726
492 0.00330443
504 0.00199557
516 0.00163105
528 0.000423324
540 0.000366174
552 0.000656518
564 0.00164304
576 0.0713758
588 0.00430668
600 0.00112742
612 0.000592502
624 0.00180419
636 0.0016567
648 0.00266084
660 0.0168356
672 0.187217
684 0.00419761
696 0.00156309
708 0.000745632
720 0.000864713
732 0.0014919
744 0.0305277
756 0.00493188
768 0.000892113
780 0.00106405
792 0.00201662
804 0.00536813
816 0.147715
828 0.0163752
840 0.00307357
852 0.00115362
864 0.000821153
876 0.000626252
888 0.000471616
900 0.00038281
912 0.000294349
924 0.00145996
936 0.00706047
948 0.323666
960 0.00400271
972 0.00155248
984 0.000966808
996 0.00504199
1008 0.0298841
1020 0.00105373
1032 0.0013845
1044 0.00554738
1056 0.12668
1068 0.0129201
1080 0.00281076
1092 0.00225697
1104 0.0188109
1116 0.0239653
1128 0.00129787
1140 0.000773325
1152 0.00503646
1164 0.0262162
1176 0.00108246
1188 0.000764987
1200 0.00492185
1212 0.0140868
1224 0.00207694
1236 0.00473659
1248 0.0656627
1260 0.031729
1272 0.00326672
1284 0.000863003
1296 0.000832663
1308 0.000426696
1320 0.000854462
1332 0.00712841
1344 0.0281782
1356 0.00114676
1368 0.00208323
1380 0.0523866
1392 0.00363784
1404 0.00365317
1416 0.0390027
1428 0.0284055
1440 0.00343546
1452 0.00478886
1464 0.0320453
1476 0.00269545
1488 0.0096542
1500 0.150359
1512 0.00513677
1524 0.00351068
1536 0.0498946
1548 0.00231965
1560 0.0029022
1572 0.107152
1584 0.002679
1596 0.00132778
1608 0.000988913
1620 0.00138092
1632 0.00676209
1644 0.117489
1656 0.00401705
1668 0.00481385
1680 0.0158702
1692 0.00580983
1704 0.0425026
1716 0.0409466
1728 0.00584378
1740 0.0212979
1752 0.00410076
1764 0.00109218
1776 0.000457316
1788 0.00101227
1800 0.00874452
1812 0.0109419
1824 0.00623014
1836 0.0568163
1848 0.00649512
1860 0.000862453
1872 0.000188503
1884 0.00138584
1896 0.0243948
1908 0.00266102
1920 0.00415379
1932 0.0106135
1944 0.00436971
1956 0.0720522
1968 0.00516672
1980 0.0133301
1992 0.00971907
2004 0.00669338
2016 0.0536377
2028 0.00385152
2040 0.00583259
2052 0.00455425
2064 0.0253166
2076 0.0201969
2088 0.00233947
2100 0.00177603
2112 0.00467666
2124 0.0308214
2136 0.00505105
2148 0.019567
2160 0.00475486
2172 0.0197804
2184 0.00797516
2196 0.003938
2208 0.00430035
2220 0.00625553
2232 0.0204265
2244 0.00379196
2256 0.0151746
2268 0.00525855
2280 0.0354281
2292 0.00187793
2304 0.000388772
2316 0.000845107
2328 0.0121437
2340 0.00207809
2352 0.0105743
2364 0.00593395
2376 0.0537025
2388 0.00642784
2400 0.0157176
2412 0.00474803
2424 0.0203718
2436 0.00440081
2448 0.0132676
2460 0.00932058
2472 0.0474325
2484 0.00451793
2496 0.00308853
2508 0.00694945
2520 0.0221103
2532 0.00383929
2544 0.00379635
2556 0.00419243
2568 0.0052973
2580 0.00881904
2592 0.0026509
2604 0.00081077
2616 0.00125954
2628 0.0101581
2640 0.00709082
2652 0.0262777
2664 0.00144945
2676 0.00144233
2688 0.00105057
2700 0.00228524
2712 0.00908524
2724 0.006143
2736 0.0264156
2748 0.00393865
2760 0.00383124
2772 0.00958455
2784 0.00537158
2796 0.00779514
2808 0.00345676
2820 0.00762085
2832 0.00106917
2844 0.00148039
2856 0.00897504
2868 0.0023857
2880 0.00541203
2892 0.0118813
2904 0.00860852
2916 0.00906889
2928 0.00233281
2940 0.00524166
2952 0.00423093
2964 0.0031764
2976 0.0100657
2988 0.000920082
3000 0.000701995
3012 0.00460308
3024 0.00429939
3036 0.00659409
3048 0.004694
3060 0.00579869
3072 0.00998344
3084 0.0063544
3096 0.0063296
3108 0.00622197
3120 0.00778041
3132 0.00826917
3144 0.0028526
3156 0.00433833
3168 0.00481014
3180 0.00781295
3192 0.00766573
3204 0.00872065
3216 0.00451646
3228 0.00182581
3240 0.00301985
3252 0.00354517
3264 0.00498409
3276 0.0046988
3288 0.000586055
3300 0.00320402
3312 0.00169257
3324 0.00286829
3336 0.00609271
3348 0.00502902
3360 0.00522008
3372 0.00690411
3384 0.00534971
3396 0.00635094
3408 0.00585865
3420 0.00634455
3432 0.00529275
3444 0.0101948
3456 0.00668429
3468 0.00925382
3480 0.00372281
3487 0.00025468

File: BTO_435K_tth.xy
0.000000000000000000e+00 0.000137872
12 0.0120915
24 0.0128686
36 0.00317822
48 0.00333197
60 0.00336268
72 0.00345144
84 0.00375897
96 0.00357768
108 0.0034348
120 0.00329973
132 0.0031506
144 0.00296798
156 0.00278047
168 0.00262768
180 0.00240364
192 0.00221592
204 0.00210278
216 0.0020637
228 0.00200888
240 0.00195393
252 0.00204749
264 0.00214439
276 0.00231494
288 0.00246966
300 0.00213604
312 0.00196901
324 0.00266428
336 0.049792
348 0.00139223
360 0.00396093
372 0.000792649
384 0.000739362
396 0.000693004
408 0.000830782
420 0.00108128
432 0.00130046
444 0.0020936
456 0.00484765
468 0.0826105
480 0.0193532
492 0.0032045
504 0.00182584
516 0.00154378
528 0.000453607
540 0.000331382
552 0.000429516
564 0.00166811
576 0.0713587
588 0.00438044
600 0.00109265
612 0.000611247
624 0.00183226
636 0.00147655
648 0.00246565
660 0.0172501
672 0.199293
684 0.00426758
696 0.00171438
708 0.000828252
720 0.00083531
732 0.00146847
744 0.0321302
756 0.00495526
768 0.000962944
780 0.000948939
792 0.00172372
804 0.00568339
816 0.152292
828 0.016563
840 0.00313226
852 0.00132327
864 0.00089786
876 0.000769902
888 0.000609185
900 0.000449885
912 0.000370298
924 0.00126577
936 0.00730853
948 0.319027
960 0.0044199
972 0.00165894
984 0.000997977
996 0.00552992
1008 0.0318211
1020 0.00159344
1032 0.00172339
1044 0.00602974
1056 0.12715
1068 0.0132975
1080 0.00240536
1092 0.00213227
1104 0.0199224
1116 0.0255391
1128 0.00147503
1140 0.00113634
1152 0.00504101
1164 0.0272623
1176 0.00122551
1188 0.00110604
1200 0.00542599
1212 0.0158288
1224 0.00235637
1236 0.00512987
1248 0.068262
1260 0.0328702
1272 0.00323013
1284 0.000758269
1296 0.000401581
1308 0.000497524
1320 0.000695354
1332 0.00793331
1344 0.0312788
1356 0.00118178
1368 0.00229904
1380 0.0508329
1392 0.00329412
1404 0.00340948
1416 0.0417979
1428 0.0303851
1440 0.00277977
1452 0.00456722
1464 0.0336161
1476 0.00245105
1488 0.00921363
1500 0.144793
1512 0.0049032
1524 0.00331158
1536 0.0469302
1548 0.00230366
1560 0.00248329
1572 0.106639
1584 0.00246955
1596 0.000285518
1608 0.000320921
1620 0.00109399
1632 0.00628711
1644 0.116813
1656 0.00345601
1668 0.00427729
1680 0.0156551
1692 0.00518879
1704 0.0446654
1716 0.0449354
1728 0.00570855
1740 0.020737
1752 0.00396557
1764 0.000531511
1776 0.000353823
1788 0.000715075
1800 0.00900021
1812 0.011252
1824 0.00618152
1836 0.0523804
1848 0.00669348
1860 0.00130499
1872 0.000437652
1884 0.00117856
1896 0.0246497
1908 0.00299589
1920 0.004202
1932 0.0119749
1944 0.00475204
1956 0.0707078
1968 0.00576535
1980 0.0140785
1992 0.0105346
2004 0.0073525
2016 0.0529062
2028 0.00382367
2040 0.00567837
2052 0.00506295
2064 0.0267105
2076 0.0223808
2088 0.00307997
2100 0.00223899
2112 0.00543294
2124 0.0280592
2136 0.0048087
2148 0.0191202
2160 0.00494478
2172 0.0211756
2184 0.00911604
2196 0.00427012
2208 0.00478496
2220 0.00718313
2232 0.0224792
2244 0.00383844
2256 0.0154239
2268 0.00572341
2280 0.0337296
2292 0.00185085
2304 0.000284437
2316 0.000345425
2328 0.0122423
2340 0.00262684
2352 0.00921149
2364 0.00634028
2376 0.050947
2388 0.0067299
2400 0.0148122
2412 0.0045873
2424 0.0197656
2436 0.00434495
2448 0.0122764
2460 0.00880387
2472 0.0452385
2484 0.00399354
2496 0.0025649
2508 0.00698003
2520 0.024037
2532 0.0031495
2544 0.00434944
2556 0.00418613
2568 0.0055296
2580 0.00869542
2592 0.00346417
2604 0.000434734
2616 0.00130431
2628 0.00999029
2640 0.00811604
2652 0.0266666
2664 0.00194461
2676 0.000600945
2688 0.000935969
2700 0.00284777
2712 0.00805437
2724 0.00702911
2736 0.02656
2748 0.00353272
2760 0.00505231
2772 0.0101032
2784 0.00695146
2796 0.00737647
2808 0.00406128
2820 0.00938649
2832 0.00151748
2844 0.00252618
2856 0.00889608
2868 0.00367338
2880 0.00488452
2892 0.011407
2904 0.00998527
2916 0.0105332
2928 0.00358876
2940 0.00610971
2952 0.00442084
2964 0.00262199
2976 0.0101795
2988 0.000000000000000000e+00
3000 0.00197101
3012 0.00363841
3024 0.00353003
3036 0.00656144
3048 0.0054175
3060 0.00582387
3072 0.00892718
3084 0.00584321
3096 0.0065243
3108 0.00589866
3120 0.00845768
3132 0.00964713
3144 0.00237041
3156 0.00391734
3168 0.00368225
3180 0.00616492
3192 0.00926137
3204 0.0105164
3216 0.0047095
3228 0.00332315
3240 0.00114536
3252 0.00394554
3264 0.00490662
3276 0.00566251
3288 0.00165786
3300 0.00300143
3312 0.00271437
3324 0.00379953
3336 0.00602247
3348 0.00599988
3360 0.0076497
3372 0.00509545
3384 0.00448792
3396 0.00820372
3408 0.0059748
3420 0.00313212
3432 0.00500882
3444 0.0105599
3456 0.00562935
3468 0.00294077
3480 0.0156131
3487 0.00243419

File: BTO_440K_tth.xy
0.000000000000000000e+00 0.000360707
12 0.0120333
24 0.0126649
36 0.00288764
48 0.00299962
60 0.00300713
72 0.00311924
84 0.00341612
96 0.00329937
108 0.00321209
120 0.00309548
132 0.00301792
144 0.00287562
156 0.00272985
168 0.00261971
180 0.0025667
192 0.0023804
204 0.00228377
216 0.00222136
228 0.00228285
240 0.00220525
252 0.00238007
264 0.00241967
276 0.00258861
288 0.00283455
300 0.00234624
312 0.00212411
324 0.00303962
336 0.0490619
348 0.00162324
360 0.00420768
372 0.000815374
384 0.00100263
396 0.000827079
408 0.000994881
420 0.00125131
432 0.0013217
444 0.00223008
456 0.00480321
468 0.0825383
480 0.0195557
492 0.00325579
504 0.00182937
516 0.00153444
528 0.000404257
540 0.000313863
552 0.000530772
564 0.00161114
576 0.0713682
588 0.00430414
600 0.00106154
612 0.000575284
624 0.00196878
636 0.00176406
648 0.0022778
660 0.0169978
672 0.192698
684 0.00429436
696 0.00161123
708 0.000781666
720 0.000924064
732 0.00159082
744 0.0313696
756 0.00495343
768 0.000999795
780 0.00118524
792 0.00218965
804 0.00548002
816 0.150157
828 0.016421
840 0.00285728
852 0.00134423
864 0.000612396
876 0.000630004
888 0.000552473
900 0.00056404
912 0.000510059
924 0.00126342
936 0.0069184
948 0.320513
960 0.0039217
972 0.00159905
984 0.00102557
996 0.00521718
1008 0.0307168
1020 0.00111528
1032 0.00134951
1044 0.00546699
1056 0.125506
1068 0.0130219
1080 0.0023546
1092 0.00195819
1104 0.0192311
1116 0.0247066
1128 0.00107998
1140 0.00100738
1152 0.00505539
1164 0.026447
1176 0.000863718
1188 0.000732469
1200 0.0051193
1212 0.0147808
1224 0.00218478
1236 0.00483307
1248 0.0668127
1260 0.0321449
1272 0.00324792
1284 0.00110952
1296 0.000495408
1308 0.000318837
1320 0.000609534
1332 0.00771159
1344 0.029542
1356 0.00139496
1368 0.00224237
1380 0.0516292
1392 0.00327336
1404 0.00367694
1416 0.0406531
1428 0.0294231
1440 0.00323015
1452 0.0049949
1464 0.0330076
1476 0.0030073
1488 0.0099977
1500 0.148192
1512 0.00519412
1524 0.00378947
1536 0.0485481
1548 0.0026017
1560 0.00285927
1572 0.107363
1584 0.00298544
1596 0.000987251
1608 0.00149037
1620 0.00166802
1632 0.00690003
1644 0.118452
1656 0.00420748
1668 0.00500574
1680 0.0161093
1692 0.00560923
1704 0.0440889
1716 0.0431933
1728 0.00597923
1740 0.0212283
1752 0.00457674
1764 0.000929773
1776 0.000741732
1788 0.00137326
1800 0.0091049
1812 0.0112752
1824 0.00611651
1836 0.0540009
1848 0.00681854
1860 0.00131599
1872 0.000637822
1884 0.00145364
1896 0.0240686
1908 0.00256607
1920 0.0040546
1932 0.0109219
1944 0.00446267
1956 0.0709652
1968 0.00508336
1980 0.0134186
1992 0.0101283
2004 0.00657072
2016 0.0532338
2028 0.00328536
2040 0.00516598
2052 0.0045549
2064 0.0256946
2076 0.0212575
2088 0.00245884
2100 0.00166142
2112 0.00495652
2124 0.0289907
2136 0.00448241
2148 0.0190986
2160 0.00441564
2172 0.0206364
2184 0.00850675
2196 0.00392127
2208 0.00436609
2220 0.006731
2232 0.0212381
2244 0.00365185
2256 0.0148483
2268 0.00569163
2280 0.0349756
2292 0.001801
2304 0.000211684
2316 0.000351845
2328 0.0120999
2340 0.00245314
2352 0.0101312
2364 0.00607695
2376 0.0525409
2388 0.00696684
2400 0.0155315
2412 0.00467188
2424 0.020113
2436 0.00497104
2448 0.0136862
2460 0.00966598
2472 0.0468586
2484 0.00450366
2496 0.00295822
2508 0.00770937
2520 0.0232883
2532 0.00393454
2544 0.00444149
2556 0.0048079
2568 0.00526437
2580 0.00936782
2592 0.0035833
2604 0.000713539
2616 0.00184724
2628 0.010424
2640 0.00767514
2652 0.0262261
2664 0.00201825
2676 0.000373456
2688 0.000794385
2700 0.00206784
2712 0.00853148
2724 0.00626089
2736 0.0263368
2748 0.00388126
2760 0.00362322
2772 0.0102288
2784 0.00434389
2796 0.00732073
2808 0.00281906
2820 0.00865177
2832 0.00106566
2844 0.00122158
2856 0.00897676
2868 0.0029945
2880 0.00376559
2892 0.0104148
2904 0.00950149
2916 0.00839506
2928 0.00235299
2940 0.00390693
2952 0.00391679
2964 0.00238067
2976 0.00873064
2988 0.00152879
3000 0.000498249
3012 0.00341433
3024 0.00309452
3036 0.00703993
3048 0.00497183
3060 0.00511258
3072 0.00893089
3084 0.00508367
3096 0.00457273
3108 0.00549038
3120 0.00775456
3132 0.0100877
3144 0.0034732
3156 0.00468982
3168 0.00535615
3180 0.00776634
3192 0.00860298
3204 0.0103609
3216 0.00427406
3228 0.00221102
3240 0.0025436
3252 0.00316729
3264 0.00600522
3276 0.00650548
3288 0.00307415
3300 0.00370898
3312 0.00436258
3324 0.00397286
3336 0.00660666
3348 0.00546271
3360 0.00743579
3372 0.00442836
3384 0.00383478
3396 0.00539468
3408 0.00270994
3420 0.00354426
3432 0.00153754
3444 0.0106395
3456 0.00434929
3468 0.00621643
3480 0.00511283
3487 0.0281309

File: BTO_445K_tth.xy
0.000000000000000000e+00 0.000214299
12 0.0120517
24 0.0127687
36 0.00306985
48 0.00316321
60 0.00324844
72 0.00332559
84 0.00368875
96 0.0035523
108 0.00339921
120 0.00323847
132 0.0031359
144 0.00300354
156 0.00281187
168 0.00262333
180 0.00252423
192 0.00230776
204 0.0022366
216 0.00215057
228 0.00213173
240 0.0020245
252 0.00213035
264 0.00231106
276 0.00243953
288 0.00256972
300 0.00225487
312 0.00195006
324 0.00292276
336 0.0482324
348 0.0014005
360 0.00398113
372 0.000751753
384 0.000789954
396 0.000874411
408 0.000879871
420 0.00102901
432 0.0012072
444 0.00208727
456 0.00471249
468 0.0822954
480 0.0192316
492 0.00328442
504 0.001886
516 0.00171698
528 0.000321557
540 0.000299977
552 0.000516702
564 0.00154625
576 0.0717609
588 0.00405271
600 0.00105863
612 0.000735854
624 0.00197522
636 0.0016291
648 0.00244775
660 0.0166712
672 0.184541
684 0.00414857
696 0.00148601
708 0.000815518
720 0.000793691
732 0.00132933
744 0.0300972
756 0.00473512
768 0.000939018
780 0.000999922
792 0.00183611
804 0.00558966
816 0.147205
828 0.0162644
840 0.00287812
852 0.00127385
864 0.00056356
876 0.000398293
888 0.000452655
900 0.000453402
912 0.000395588
924 0.00123127
936 0.00725153
948 0.323245
960 0.0040644
972 0.00151339
984 0.000924359
996 0.00504848
1008 0.0293814
1020 0.00139845
1032 0.00142289
1044 0.00570566
1056 0.125002
1068 0.012702
1080 0.00260952
1092 0.00220946
1104 0.0182025
1116 0.0234452
1128 0.00116682
1140 0.000775205
1152 0.00503693
1164 0.026095
1176 0.00116044
1188 0.000929333
1200 0.00510975
1212 0.0143204
1224 0.00227154
1236 0.00470674
1248 0.065139
1260 0.0312887
1272 0.00314477
1284 0.000975266
1296 0.000533366
1308 0.000423022
1320 0.000749363
1332 0.00691304
1344 0.0276505
1356 0.00142118
1368 0.00206751
1380 0.0531325
1392 0.00335945
1404 0.00367296
1416 0.03805
1428 0.027781
1440 0.00335403
1452 0.0047252
1464 0.0313516
1476 0.00250476
1488 0.00919289
1500 0.151495
1512 0.00496192
1524 0.00335573
1536 0.050712
1548 0.00203624
1560 0.00261251
1572 0.107046
1584 0.00266723
1596 0.000891888
1608 0.000738027
1620 0.00121206
1632 0.00666702
1644 0.117746
1656 0.00387356
1668 0.00437938
1680 0.0148398
1692 0.00557036
1704 0.0417544
1716 0.0397345
1728 0.00575304
1740 0.0217026
1752 0.00377034
1764 0.0010282
1776 0.00053828
1788 0.000747907
1800 0.0081248
1812 0.010663
1824 0.00621684
1836 0.0586915
1848 0.00634799
1860 0.00099067
1872 0.00014848
1884 0.00104068
1896 0.0243643
1908 0.0028943
1920 0.00409753
1932 0.0106759
1944 0.00469664
1956 0.0726993
1968 0.0051402
1980 0.0127023
1992 0.00993682
2004 0.00686534
2016 0.0532092
2028 0.00398428
2040 0.00647095
2052 0.00460873
2064 0.0249743
2076 0.0197151
2088 0.00263816
2100 0.00229649
2112 0.00506443
2124 0.0316128
2136 0.00462155
2148 0.0199432
2160 0.00468597
2172 0.0199862
2184 0.00836512
2196 0.00388447
2208 0.00441408
2220 0.00675422
2232 0.0202602
2244 0.00382456
2256 0.0152472
2268 0.00551143
2280 0.0357407
2292 0.00184186
2304 0.000615806
2316 0.000557947
2328 0.0121371
2340 0.00173391
2352 0.0108806
2364 0.0062126
2376 0.0541364
2388 0.00687312
2400 0.0162907
2412 0.00423035
2424 0.0207126
2436 0.00417502
2448 0.0137534
2460 0.00860882
2472 0.0476953
2484 0.00418047
2496 0.00311335
2508 0.00704461
2520 0.0219246
2532 0.00380147
2544 0.00384498
2556 0.00422416
2568 0.00501042
2580 0.00896189
2592 0.00272651
2604 0.000502759
2616 0.00114391
2628 0.0102422
2640 0.00698976
2652 0.0247575
2664 0.00155987
2676 0.00067526
2688 0.000499742
2700 0.00199727
2712 0.00872392
2724 0.00620814
2736 0.026279
2748 0.00336734
2760 0.00418636
2772 0.00953143
2784 0.00580137
2796 0.00788437
2808 0.00250155
2820 0.00779999
2832 0.000853142
2844 0.00095741
2856 0.00913118
2868 0.00240318
2880 0.00450953
2892 0.011297
2904 0.00903939
2916 0.00845931
2928 0.00248018
2940 0.00431682
2952 0.00432083
2964 0.00221566
2976 0.00917562
2988 0.000830191
3000 0.00155967
3012 0.00445703
3024 0.00253261
3036 0.00655703
3048 0.005328
3060 0.00400257
3072 0.00810821
3084 0.00566934
3096 0.00510636
3108 0.00446889
3120 0.00683777
3132 0.00741661
3144 0.00227836
3156 0.00350888
3168 0.00351005
3180 0.00895853
3192 0.0075267
3204 0.00949354
3216 0.00492091
3228 0.00271601
3240 0.00147468
3252 0.0032613
3264 0.00501276
3276 0.00664738
3288 0.00250175
3300 0.00336759
3312 0.00464432
3324 0.00305673
3336 0.00628757
3348 0.00573826
3360 0.00588455
3372 0.00465577
3384 0.00411574
3396 0.00448029
3408 0.00532184
3420 0.00213728
3432 0.00447092
3444 0.0107223
3456 0.0125815
3468 0.00771632
3480 0.000359078
3487 0.0131132

File: constrained_nmf_component0.xy
0.000000000000000000e+00 0.000930581
12 0.00994004
24 0.0108928
36 0.00270606
48 0.00284826
60 0.0029005
72 0.00309521
84 0.00344234
96 0.00341929
108 0.00338799
120 0.00339846
132 0.0033874
144 0.00337144
156 0.00330845
168 0.00331756
180 0.00317449
192 0.00311112
204 0.00299196
216 0.00290312
228 0.0029212
240 0.0028885
252 0.00290046
264 0.00296038
276 0.00295287
288 0.0032596
300 0.00304662
312 0.00282975
324 0.00362638
336 0.0672908
348 0.00271059
360 0.00479396
372 0.00164151
384 0.00178692
396 0.00157213
408 0.00148447
420 0.00189602
432 0.00171069
444 0.00238907
456 0.00472905
468 0.0579282
480 0.0273548
492 0.00380663
504 0.00219453
516 0.00239061
528 0.000569614
540 0.000602753
552 0.000927204
564 0.00178877
576 0.0443904
588 0.00602444
600 0.00159467
612 0.00107518
624 0.00243986
636 0.00227245
648 0.0096841
660 0.0126914
672 0.267286
684 0.00533372
696 0.00362388
708 0.00168102
720 0.00126022
732 0.00165581
744 0.0196415
756 0.0101232
768 0.0012589
780 0.00208564
792 0.00191242
804 0.00462262
816 0.0913233
828 0.0307961
840 0.00339216
852 0.00128339
864 0.00119826
876 0.000925578
888 0.00139568
900 0.000825602
912 0.00100942
924 0.00135751
936 0.00574843
948 0.353052
960 0.00638909
972 0.00208778
984 0.00267812
996 0.00415907
1008 0.078289
1020 0.00214311
1032 0.00172477
1044 0.00445971
1056 0.0941114
1068 0.0337152
1080 0.00304541
1092 0.0026603
1104 0.012033
1116 0.065149
1128 0.00183706
1140 0.00109847
1152 0.00413664
1164 0.115341
1176 0.00123488
1188 0.000870476
1200 0.00365016
1212 0.0372558
1224 0.00223776
1236 0.0040503
1248 0.0433599
1260 0.112124
1272 0.00431398
1284 0.00119996
1296 0.000662196
1308 0.000740478
1320 0.000873626
1332 0.00447239
1344 0.0393181
1356 0.00375078
1368 0.00226402
1380 0.0407836
1392 0.00840621
1404 0.0036263
1416 0.0257589
1428 0.0835117
1440 0.00541728
1452 0.00525731
1464 0.0712669
1476 0.00368494
1488 0.00782568
1500 0.13421
1512 0.0124294
1524 0.00418866
1536 0.0428495
1548 0.00640816
1560 0.00335371
1572 0.0577683
1584 0.00713096
1596 0.00219542
1608 0.00153549
1620 0.00226401
1632 0.00546417
1644 0.0971643
1656 0.00806366
1668 0.0046493
1680 0.0257597
1692 0.00536826
1704 0.0309168
1716 0.132865
1728 0.00853685
1740 0.0212634
1752 0.01189
1764 0.00184771
1776 0.000749244
1788 0.00143129
1800 0.00725997
1812 0.039566
1824 0.00530653
1836 0.0550644
1848 0.0238657
1860 0.00215071
1872 0.000551763
1884 0.000609715
1896 0.0137199
1908 0.00831185
1920 0.00355746
1932 0.0241454
1944 0.0039458
1956 0.0477688
1968 0.0144184
1980 0.010333
1992 0.031372
2004 0.00535444
2016 0.0549636
2028 0.00612489
2040 0.00648023
2052 0.00489936
2064 0.0206928
2076 0.0727025
2088 0.00518315
2100 0.000961931
2112 0.00291583
2124 0.0294558
2136 0.010618
2148 0.0189835
2160 0.011987
2172 0.0148213
2184 0.0399263
2196 0.00460832
2208 0.016033
2220 0.00461073
2232 0.0305399
2244 0.00637612
2256 0.0189521
2268 0.00538712
2280 0.0349062
2292 0.00847019
2304 0.000814968
2316 0.000861446
2328 0.00544278
2340 0.00330754
2352 0.0107196
2364 0.00787772
2376 0.0406962
2388 0.0185343
2400 0.0175072
2412 0.00842318
2424 0.0181569
2436 0.0105235
2448 0.0149211
2460 0.0106421
2472 0.0498714
2484 0.0146908
2496 0.00372791
2508 0.00608778
2520 0.0388078
2532 0.00809092
2544 0.0107999
2556 0.00525056
2568 0.011592
2580 0.0119748
2592 0.0147013
2604 0.00186113
2616 0.00217836
2628 0.0102182
2640 0.00902332
2652 0.0401711
2664 0.00819547
2676 0.00136051
2688 0.00171654
2700 0.00284462
2712 0.00996828
2724 0.0102633
2736 0.0315839
2748 0.0099936
2760 0.00766804
2772 0.0106791
2784 0.0209197
2796 0.0108701
2808 0.00660945
2820 0.0156288
2832 0.00154795
2844 0.000830643
2856 0.008426
2868 0.0089265
2880 0.00701214
2892 0.0129628
2904 0.0338174
2916 0.0117992
2928 0.00623764
2940 0.00929228
2952 0.00638353
2964 0.00933346
2976 0.0105272
2988 0.00507309
3000 0.000786662
3012 0.00481332
3024 0.00765633
3036 0.00987994
3048 0.008304
3060 0.0101733
3072 0.0113499
3084 0.00865776
3096 0.0170292
3108 0.00835471
3120 0.0113908
3132 0.0284281
3144 0.00621961
3156 0.00405775
3168 0.0113179
3180 0.0111504
3192 0.0135491
3204 0.024488
3216 0.00850887
3228 0.00427801
3240 0.00103503
3252 0.00363117
3264 0.00582408
3276 0.0168776
3288 0.00215648
3300 0.000615673
3312 0.00508517
3324 0.002589
3336 0.00784891
3348 0.0159353
3360 0.00885268
3372 0.00422545
3384 0.00899016
3396 0.00776752
3408 0.00770832
3420 0.0055712
3432 0.00724083
3444 0.0143384
3456 0.0172101
3468 0.0178501
3480 0.0236043
3487 7.48528e-05