Folder: pub-Maffettone_2021_04/constrainednmf/example_data/BaTiO3_xrd_ramp (part 13)

File: constrained_nmf_component2.xy
0.000000000000000000e+00 0.000978224
12 0.010446
24 0.0109684
36 0.00251773
48 0.002641
60 0.00269835
72 0.00283432
84 0.00323754
96 0.00320921
108 0.00323073
120 0.0032489
132 0.0032775
144 0.00330907
156 0.00325928
168 0.00322767
180 0.00323661
192 0.00313407
204 0.00302955
216 0.00297174
228 0.00297132
240 0.00302936
252 0.00303965
264 0.00304652
276 0.00325755
288 0.00342525
300 0.00318513
312 0.00292555
324 0.00373684
336 0.0667986
348 0.00230403
360 0.00494663
372 0.00149086
384 0.00139853
396 0.00143276
408 0.00148379
420 0.0017151
432 0.00165334
444 0.00247324
456 0.00484268
468 0.0778887
480 0.0243449
492 0.00354934
504 0.00184431
516 0.00204952
528 0.00057047
540 0.000588519
552 0.000832854
564 0.00180653
576 0.0546149
588 0.00552149
600 0.00160468
612 0.0010375
624 0.00241451
636 0.00199077
648 0.0027336
660 0.0154087
672 0.22682
684 0.00500906
696 0.002689
708 0.00128838
720 0.00115685
732 0.00168768
744 0.0331414
756 0.00896789
768 0.00133075
780 0.00134501
792 0.00201525
804 0.00539118
816 0.139581
828 0.0257943
840 0.00347819
852 0.00155456
864 0.00112718
876 0.000787124
888 0.00106407
900 0.000931159
912 0.00085455
924 0.00162526
936 0.0069644
948 0.339712
960 0.00550511
972 0.00182611
984 0.00180227
996 0.00496436
1008 0.0583174
1020 0.00172186
1032 0.00168734
1044 0.00509991
1056 0.165955
1068 0.0351212
1080 0.00289147
1092 0.00242347
1104 0.0187099
1116 0.0774942
1128 0.00180557
1140 0.000855225
1152 0.00404364
1164 0.0757741
1176 0.00153539
1188 0.000906042
1200 0.00544287
1212 0.0334722
1224 0.00245251
1236 0.00413619
1248 0.0725491
1260 0.103092
1272 0.00393193
1284 0.00110033
1296 0.000384879
1308 0.0005415
1320 0.00114435
1332 0.00788229
1344 0.0175925
1356 0.0027223
1368 0.00276887
1380 0.0507525
1392 0.0100554
1404 0.00375194
1416 0.0508012
1428 0.0822876
1440 0.0046809
1452 0.00617785
1464 0.0646683
1476 0.00375946
1488 0.00976756
1500 0.0977828
1512 0.010383
1524 0.00435382
1536 0.0391632
1548 0.00538804
1560 0.00355085
1572 0.0744482
1584 0.00493888
1596 0.00187286
1608 0.00182146
1620 0.00211639
1632 0.00684791
1644 0.0862045
1656 0.0069564
1668 0.00639276
1680 0.0193791
1692 0.00597186
1704 0.0610981
1716 0.101542
1728 0.00839036
1740 0.0299763
1752 0.0187523
1764 0.00190737
1776 0.00114903
1788 0.00170704
1800 0.0119834
1812 0.0274003
1824 0.00657921
1836 0.0654373
1848 0.0387375
1860 0.00206883
1872 0.000464628
1884 0.00152557
1896 0.0135814
1908 0.00635351
1920 0.00590375
1932 0.0175637
1944 0.00439845
1956 0.0558343
1968 0.0144296
1980 0.0166399
1992 0.0253056
2004 0.00728695
2016 0.0562472
2028 0.00818461
2040 0.00731206
2052 0.00662118
2064 0.0376183
2076 0.0487505
2088 0.0043403
2100 0.00153323
2112 0.00462786
2124 0.0215006
2136 0.0205413
2148 0.0202449
2160 0.0120481
2172 0.018017
2184 0.0318546
2196 0.00507614
2208 0.0113433
2220 0.00817076
2232 0.013748
2244 0.00739434
2256 0.0159835
2268 0.00837389
2280 0.0253619
2292 0.0109891
2304 0.000728388
2316 0.000590091
2328 0.00890678
2340 0.00293328
2352 0.00954257
2364 0.0106671
2376 0.0408252
2388 0.0168707
2400 0.0135469
2412 0.00988097
2424 0.0175183
2436 0.0121176
2448 0.0119167
2460 0.0157959
2472 0.0382591
2484 0.0203453
2496 0.00392433
2508 0.0105492
2520 0.0290683
2532 0.00795049
2544 0.00771779
2556 0.00842772
2568 0.00673385
2580 0.0138021
2592 0.00943466
2604 0.00177332
2616 0.00277467
2628 0.00907059
2640 0.0148589
2652 0.0282215
2664 0.00915118
2676 0.00152209
2688 0.00291856
2700 0.00323013
2712 0.00872362
2724 0.0127131
2736 0.0245506
2748 0.0135071
2760 0.00461367
2772 0.0143582
2784 0.0125456
2796 0.00862233
2808 0.00751968
2820 0.0158232
2832 0.000511208
2844 0.00149567
2856 0.00801717
2868 0.00737802
2880 0.00567576
2892 0.0181802
2904 0.0187821
2916 0.0112197
2928 0.00730592
2940 0.00906332
2952 0.00701289
2964 0.00640469
2976 0.00855666
2988 0.0047742
3000 0.00155554
3012 0.00620179
3024 0.00721185
3036 0.00797411
3048 0.00936083
3060 0.00735789
3072 0.010282
3084 0.010032
3096 0.00939454
3108 0.00714169
3120 0.0134074
3132 0.0188798
3144 0.00955445
3156 0.00570739
3168 0.0107154
3180 0.00862732
3192 0.0146711
3204 0.017454
3216 0.00847318
3228 0.00298711
3240 0.00357614
3252 0.00558614
3264 0.00980222
3276 0.00942248
3288 0.00460472
3300 0.00390198
3312 0.00419744
3324 0.00375131
3336 0.00675279
3348 0.00878612
3360 0.00744523
3372 0.00764269
3384 0.0074678
3396 0.00814923
3408 0.00657419
3420 0.00695268
3432 0.00731844
3444 0.0134213
3456 0.0171826
3468 0.0224225
3480 0.0245226
3487 0.000400107