Folder: pub-Maffettone_2021_04/constrainednmf/example_data/BaTiO3_xrd_ramp (part 6)

File: BTO_280K_tth.xy
0.000000000000000000e+00 0.00112775
12 0.0109684
24 0.0114237
36 0.00258635
48 0.00259697
60 0.00275753
72 0.00294565
84 0.00334488
96 0.00334783
108 0.00335967
120 0.00339986
132 0.00347326
144 0.00345125
156 0.00343096
168 0.00344962
180 0.00337649
192 0.00336215
204 0.00325808
216 0.00325591
228 0.00324783
240 0.00319637
252 0.00320938
264 0.00328132
276 0.00349106
288 0.00364742
300 0.00333628
312 0.00309687
324 0.00403551
336 0.0664817
348 0.002507
360 0.00517238
372 0.00168558
384 0.00156543
396 0.00158127
408 0.00161984
420 0.00174531
432 0.00198877
444 0.00267406
456 0.00521997
468 0.0812289
480 0.0235551
492 0.00377391
504 0.00208444
516 0.00214689
528 0.0007387
540 0.000649577
552 0.000835169
564 0.00203923
576 0.0593024
588 0.0051951
600 0.00144414
612 0.00111379
624 0.00266777
636 0.00198182
648 0.00278019
660 0.0175692
672 0.271082
684 0.00496564
696 0.00266
708 0.00143052
720 0.00136649
732 0.0021801
744 0.0381121
756 0.00806004
768 0.00166329
780 0.00175971
792 0.00249918
804 0.00584677
816 0.158744
828 0.0230027
840 0.00353246
852 0.00190424
864 0.0014214
876 0.00101013
888 0.00124763
900 0.000915704
912 0.00102213
924 0.00176944
936 0.0071157
948 0.326137
960 0.00492257
972 0.00190813
984 0.00157815
996 0.00556667
1008 0.0538295
1020 0.00180591
1032 0.00168946
1044 0.0054876
1056 0.152604
1068 0.0254719
1080 0.00268453
1092 0.00222972
1104 0.0236505
1116 0.0726371
1128 0.00134655
1140 0.00101273
1152 0.0043907
1164 0.0587555
1176 0.00143231
1188 0.000819066
1200 0.0058715
1212 0.0313553
1224 0.00218675
1236 0.004563
1248 0.0795081
1260 0.0806535
1272 0.00360894
1284 0.00139939
1296 0.000668395
1308 0.000706335
1320 0.00117751
1332 0.0111998
1344 0.0239063
1356 0.00268719
1368 0.00297372
1380 0.0463882
1392 0.00719542
1404 0.00406423
1416 0.055467
1428 0.0921289
1440 0.0046369
1452 0.00612729
1464 0.0549778
1476 0.00384879
1488 0.0114747
1500 0.0883457
1512 0.00880025
1524 0.00478771
1536 0.0339386
1548 0.00466518
1560 0.00368652
1572 0.0863531
1584 0.00449805
1596 0.00177652
1608 0.00218427
1620 0.00239563
1632 0.00745678
1644 0.08295
1656 0.00613592
1668 0.00679657
1680 0.0189061
1692 0.00641387
1704 0.0610259
1716 0.100558
1728 0.00809205
1740 0.0246546
1752 0.0174029
1764 0.00177174
1776 0.00115081
1788 0.00135952
1800 0.0122185
1812 0.0267474
1824 0.00746337
1836 0.052234
1848 0.0245372
1860 0.00176409
1872 0.000820372
1884 0.00108008
1896 0.0175136
1908 0.0059494
1920 0.0059794
1932 0.016635
1944 0.00459566
1956 0.055135
1968 0.0103826
1980 0.0171032
1992 0.0265919
2004 0.00732971
2016 0.0547658
2028 0.00615137
2040 0.00545306
2052 0.00784146
2064 0.0362405
2076 0.0522973
2088 0.00296374
2100 0.0013014
2112 0.00652489
2124 0.0171762
2136 0.0141821
2148 0.0179869
2160 0.0126337
2172 0.0213873
2184 0.0256115
2196 0.00493591
2208 0.0113086
2220 0.00955909
2232 0.0146795
2244 0.00605509
2256 0.0148442
2268 0.00868382
2280 0.0206874
2292 0.0064649
2304 0.000869598
2316 0.000479388
2328 0.00988044
2340 0.0027517
2352 0.00809924
2364 0.010378
2376 0.0422375
2388 0.0185466
2400 0.0134837
2412 0.01131
2424 0.0155304
2436 0.0101906
2448 0.0107228
2460 0.0164212
2472 0.0352763
2484 0.0154538
2496 0.00389958
2508 0.0110146
2520 0.0282915
2532 0.00651873
2544 0.0074973
2556 0.00727236
2568 0.00755797
2580 0.0120992
2592 0.0102182
2604 0.00234078
2616 0.00234876
2628 0.00887237
2640 0.0134774
2652 0.0252056
2664 0.00463579
2676 0.00138667
2688 0.00189083
2700 0.00306479
2712 0.00799823
2724 0.0126067
2736 0.022941
2748 0.0109022
2760 0.00498973
2772 0.0118219
2784 0.012319
2796 0.0058616
2808 0.00707058
2820 0.0139827
2832 0.00123584
2844 0.00195542
2856 0.00744313
2868 0.00821715
2880 0.00502707
2892 0.017157
2904 0.0199032
2916 0.00753767
2928 0.00566637
2940 0.00821612
2952 0.00574776
2964 0.00578987
2976 0.0083109
2988 0.00442905
3000 0.00181766
3012 0.00404038
3024 0.00860246
3036 0.00734425
3048 0.00771087
3060 0.00889056
3072 0.0100278
3084 0.0110736
3096 0.0103766
3108 0.0079541
3120 0.0131894
3132 0.0153489
3144 0.00684615
3156 0.00501174
3168 0.0101357
3180 0.00837157
3192 0.0144943
3204 0.0156061
3216 0.0066266
3228 0.00381747
3240 0.000875765
3252 0.00336914
3264 0.00820425
3276 0.0069402
3288 0.00193424
3300 0.00214753
3312 0.00309148
3324 0.00324018
3336 0.00748118
3348 0.00816105
3360 0.00358248
3372 0.00492082
3384 0.0062714
3396 0.00601192
3408 0.00619488
3420 0.00280941
3432 0.00812267
3444 0.0138187
3456 0.0181895
3468 0.0174298
3480 0.018834
3487 0.000251312

File: BTO_285K_tth.xy
0.000000000000000000e+00 9.81062e-05
12 0.0107535
24 0.011618
36 0.00290128
48 0.00313523
60 0.00327005
72 0.00340456
84 0.003743
96 0.00360525
108 0.0034863
120 0.00334928
132 0.00324137
144 0.00311216
156 0.00291356
168 0.00274569
180 0.00255083
192 0.00229917
204 0.00211583
216 0.00211105
228 0.00205399
240 0.00193921
252 0.00200779
264 0.00209317
276 0.00229442
288 0.00248371
300 0.00216066
312 0.00199299
324 0.00287686
336 0.0670474
348 0.00144421
360 0.00432174
372 0.000765773
384 0.000766686
396 0.000814085
408 0.000909126
420 0.0011703
432 0.00134411
444 0.00216572
456 0.00465771
468 0.0813627
480 0.0233513
492 0.00330853
504 0.00178125
516 0.00171668
528 0.000288381
540 0.000203977
552 0.000391402
564 0.00166686
576 0.0598644
588 0.00463722
600 0.000892717
612 0.000511692
624 0.00190048
636 0.0015265
648 0.0021205
660 0.0173152
672 0.289446
684 0.00431365
696 0.00171352
708 0.000499401
720 0.000427218
732 0.00115819
744 0.0400997
756 0.0070176
768 0.000557361
780 0.00065185
792 0.00161033
804 0.00506695
816 0.166836
828 0.022188
840 0.00279505
852 0.000928838
864 0.000689665
876 0.000136242
888 0.000400109
900 0.000283681
912 0.000220304
924 0.00092091
936 0.00653101
948 0.316708
960 0.00486791
972 0.00145907
984 0.00128054
996 0.00560133
1008 0.0549546
1020 0.0014658
1032 0.00140628
1044 0.00516537
1056 0.143701
1068 0.0248056
1080 0.00293866
1092 0.0023461
1104 0.0266985
1116 0.0740487
1128 0.00153372
1140 0.00100154
1152 0.00472639
1164 0.0571565
1176 0.00144384
1188 0.0008402
1200 0.00589318
1212 0.0316953
1224 0.00206872
1236 0.00458122
1248 0.0836677
1260 0.0813533
1272 0.00350529
1284 0.00105386
1296 0.000366039
1308 0.000751765
1320 0.000853908
1332 0.0127123
1344 0.026591
1356 0.00215077
1368 0.00243039
1380 0.044519
1392 0.00617445
1404 0.00332663
1416 0.0559558
1428 0.0964704
1440 0.00365442
1452 0.00532686
1464 0.0507271
1476 0.00266905
1488 0.0110501
1500 0.0852062
1512 0.00748418
1524 0.00357426
1536 0.030636
1548 0.00317676
1560 0.00200075
1572 0.0886664
1584 0.00335088
1596 0.000498913
1608 0.00058638
1620 0.00102509
1632 0.00616918
1644 0.0803184
1656 0.00481508
1668 0.00567947
1680 0.0171483
1692 0.00578617
1704 0.0598588
1716 0.104433
1728 0.00733019
1740 0.0217275
1752 0.0157427
1764 0.000841459
1776 0.00025193
1788 0.000407133
1800 0.0115833
1812 0.0270317
1824 0.00712788
1836 0.0467569
1848 0.0227273
1860 0.00131639
1872 0.000239403
1884 0.000866426
1896 0.0196612
1908 0.00648832
1920 0.00645591
1932 0.0165845
1944 0.00539477
1956 0.0544883
1968 0.011289
1980 0.0187442
1992 0.0271328
2004 0.00841125
2016 0.0537195
2028 0.00688873
2040 0.00592295
2052 0.00930833
2064 0.0370458
2076 0.0562265
2088 0.00354857
2100 0.00230608
2112 0.00863455
2124 0.0164269
2136 0.0142233
2148 0.0180778
2160 0.0136187
2172 0.0237213
2184 0.0260485
2196 0.0057167
2208 0.0120963
2220 0.0104393
2232 0.016059
2244 0.0062349
2256 0.0149888
2268 0.0101276
2280 0.0196982
2292 0.00612222
2304 0.00042008
2316 0.000584789
2328 0.0102478
2340 0.00269602
2352 0.00699719
2364 0.0102017
2376 0.0417368
2388 0.0190302
2400 0.0125477
2412 0.0106133
2424 0.0141183
2436 0.00958178
2448 0.00932609
2460 0.0157767
2472 0.0326923
2484 0.0130718
2496 0.0026409
2508 0.010505
2520 0.0273336
2532 0.00536713
2544 0.00611676
2556 0.00543244
2568 0.00781706
2580 0.0100124
2592 0.00987625
2604 0.000366191
2616 0.00186535
2628 0.00759847
2640 0.013438
2652 0.0234442
2664 0.00444687
2676 0.000381157
2688 0.00081486
2700 0.00307323
2712 0.00765766
2724 0.0129859
2736 0.0227109
2748 0.0108726
2760 0.00597644
2772 0.0113395
2784 0.0129848
2796 0.0058891
2808 0.00775469
2820 0.014118
2832 0.000750727
2844 0.00192301
2856 0.00692911
2868 0.0100595
2880 0.00658182
2892 0.016397
2904 0.0206454
2916 0.00867666
2928 0.00632562
2940 0.00759687
2952 0.0053775
2964 0.00672627
2976 0.00719342
2988 0.00316227
3000 0.00199733
3012 0.00420745
3024 0.0076979
3036 0.00678517
3048 0.00604546
3060 0.00867978
3072 0.00848926
3084 0.00904634
3096 0.0097477
3108 0.00550487
3120 0.0102733
3132 0.0127833
3144 0.00407188
3156 0.00305393
3168 0.00860636
3180 0.00411554
3192 0.011862
3204 0.0138197
3216 0.00455109
3228 0.00435608
3240 0.000523626
3252 0.00333272
3264 0.00603962
3276 0.00868715
3288 0.00137022
3300 0.00266106
3312 0.00203515
3324 0.00354885
3336 0.00709071
3348 0.00862023
3360 0.00602319
3372 0.00293867
3384 0.00525577
3396 0.00509163
3408 0.00316594
3420 0.000595423
3432 0.00366892
3444 0.00742325
3456 0.00843281
3468 0.00725974
3480 0.0104813
3487 0.0191706

File: BTO_290K_tth.xy
0.000000000000000000e+00 3.01549e-05
12 0.0112639
24 0.0122036
36 0.00282
48 0.00296171
60 0.00309943
72 0.00322537
84 0.00364211
96 0.00347969
108 0.00338516
120 0.00331265
132 0.00319322
144 0.00310314
156 0.00289019
168 0.0027855
180 0.00258098
192 0.00243412
204 0.00227559
216 0.00217577
228 0.00207209
240 0.0020807
252 0.00208172
264 0.00213301
276 0.00231448
288 0.0025476
300 0.00221456
312 0.00206139
324 0.00293734
336 0.0698694
348 0.00157215
360 0.00432686
372 0.000754262
384 0.00074283
396 0.000660734
408 0.000884432
420 0.00112134
432 0.00125427
444 0.00216909
456 0.00481267
468 0.0813753
480 0.024404
492 0.00339538
504 0.00171793
516 0.0015785
528 0.000290538
540 0.000249949
552 0.000475925
564 0.00157632
576 0.0588611
588 0.00491638
600 0.00104366
612 0.000388375
624 0.00182626
636 0.00155977
648 0.00223053
660 0.0181798
672 0.309899
684 0.00440181
696 0.00198509
708 0.000574006
720 0.000561905
732 0.00125324
744 0.0421763
756 0.00767102
768 0.000619868
780 0.000715208
792 0.00155246
804 0.00527486
816 0.170494
828 0.0229963
840 0.00314726
852 0.0009748
864 0.000711928
876 0.000179628
888 0.000468733
900 0.000188285
912 0.000145945
924 0.000869087
936 0.00685808
948 0.308736
960 0.00488421
972 0.00132329
984 0.00119314
996 0.00604514
1008 0.0582772
1020 0.00138132
1032 0.00139386
1044 0.00533756
1056 0.134615
1068 0.0254123
1080 0.00287723
1092 0.00241453
1104 0.0290748
1116 0.0782415
1128 0.00142413
1140 0.000866662
1152 0.00445961
1164 0.0589773
1176 0.00115083
1188 0.000874122
1200 0.00598182
1212 0.0323716
1224 0.00205008
1236 0.00485596
1248 0.0852887
1260 0.0876387
1272 0.00365329
1284 0.00109722
1296 0.000567341
1308 0.000346259
1320 0.000884156
1332 0.0149052
1344 0.0291706
1356 0.00202669
1368 0.00293284
1380 0.0421834
1392 0.0063832
1404 0.00366089
1416 0.0573148
1428 0.104191
1440 0.00363764
1452 0.00528658
1464 0.0483321
1476 0.00288543
1488 0.0111817
1500 0.0830813
1512 0.00773473
1524 0.00375082
1536 0.0287409
1548 0.00332658
1560 0.00254306
1572 0.0909783
1584 0.00340642
1596 0.00109145
1608 0.000383792
1620 0.0010029
1632 0.00668272
1644 0.0783459
1656 0.00505774
1668 0.00586024
1680 0.0169838
1692 0.00565119
1704 0.0593447
1716 0.11107
1728 0.00729076
1740 0.0197055
1752 0.0160891
1764 0.000865484
1776 0.000149557
1788 0.000797196
1800 0.0117905
1812 0.0286223
1824 0.00735711
1836 0.0415314
1848 0.0226661
1860 0.00115165
1872 0.000674451
1884 0.000938636
1896 0.0217054
1908 0.00735648
1920 0.00634259
1932 0.0164533
1944 0.00479507
1956 0.0532079
1968 0.0114669
1980 0.0190473
1992 0.0268777
2004 0.00825585
2016 0.0514261
2028 0.00672081
2040 0.00464786
2052 0.00877425
2064 0.0368717
2076 0.0594229
2088 0.00365641
2100 0.00149348
2112 0.00948622
2124 0.0145098
2136 0.0138427
2148 0.0172036
2160 0.0137105
2172 0.0244673
2184 0.0262508
2196 0.00563076
2208 0.012847
2220 0.0108022
2232 0.0157692
2244 0.00632781
2256 0.0145172
2268 0.0105488
2280 0.0183074
2292 0.00578502
2304 4.18916e-05
2316 0.000265528
2328 0.00996323
2340 0.00249706
2352 0.00633882
2364 0.0107426
2376 0.0414399
2388 0.0198906
2400 0.0122949
2412 0.0109439
2424 0.0131616
2436 0.0102582
2448 0.00921619
2460 0.0170262
2472 0.0305921
2484 0.0127585
2496 0.00267255
2508 0.0111443
2520 0.0279688
2532 0.00496849
2544 0.00651766
2556 0.00498372
2568 0.00871893
2580 0.0093717
2592 0.0111967
2604 0.000877733
2616 0.0013733
2628 0.00708566
2640 0.0136685
2652 0.0221217
2664 0.0047411
2676 0.00087434
2688 0.000366027
2700 0.0027467
2712 0.00719369
2724 0.0132377
2736 0.0219992
2748 0.0110418
2760 0.00684769
2772 0.0108515
2784 0.0132049
2796 0.00554156
2808 0.00789449
2820 0.0126637
2832 0.00176723
2844 0.00188342
2856 0.00643971
2868 0.0103366
2880 0.00576702
2892 0.0145468
2904 0.0221867
2916 0.00831333
2928 0.00551372
2940 0.00697897
2952 0.00506098
2964 0.00568598
2976 0.00755123
2988 0.00301347
3000 0.00189448
3012 0.00346789
3024 0.00726839
3036 0.00658891
3048 0.00521599
3060 0.00895331
3072 0.00879052
3084 0.00669089
3096 0.00960575
3108 0.00642007
3120 0.0111779
3132 0.012426
3144 0.00490929
3156 0.00300894
3168 0.0078962
3180 0.00637733
3192 0.0128743
3204 0.015514
3216 0.00576629
3228 0.00193543
3240 0.00100948
3252 0.00331799
3264 0.00720757
3276 0.00733551
3288 0.00198518
3300 0.0017512
3312 0.00561669
3324 0.00408915
3336 0.00708
3348 0.0122797
3360 0.00631566
3372 0.00675724
3384 0.00596189
3396 0.00791625
3408 0.00516031
3420 0.00222531
3432 0.00618638
3444 0.00859508
3456 0.00942909
3468 0.0109345
3480 0.0161486
3487 0.0250581

File: BTO_295K_tth.xy
0.000000000000000000e+00 0.00288782
12 0.0136028
24 0.0140743
36 0.00427453
48 0.00429128
60 0.00441597
72 0.00458225
84 0.00504315
96 0.00501943
108 0.00509557
120 0.00510375
132 0.00517508
144 0.00524125
156 0.00526366
168 0.00516321
180 0.00520893
192 0.00513108
204 0.00513978
216 0.0049934
228 0.00502905
240 0.00496268
252 0.00513805
264 0.00514731
276 0.00523484
288 0.00546204
300 0.00510703
312 0.0049189
324 0.00575154
336 0.0728483
348 0.00432103
360 0.00695205
372 0.00334388
384 0.00313487
396 0.00322013
408 0.00325099
420 0.00339128
432 0.00349852
444 0.00438417
456 0.00689521
468 0.0843246
480 0.0265569
492 0.00556924
504 0.00389363
516 0.00379913
528 0.00231454
540 0.00235436
552 0.00256273
564 0.00369012
576 0.06123
588 0.0070258
600 0.0030532
612 0.00259028
624 0.00420068
636 0.00383266
648 0.00458864
660 0.0207052
672 0.322846
684 0.00671347
696 0.00435126
708 0.00320437
720 0.0032629
732 0.00367655
744 0.0460796
756 0.0100581
768 0.00352462
780 0.00343968
792 0.00429825
804 0.00785157
816 0.177489
828 0.0256268
840 0.00555214
852 0.00356417
864 0.00318562
876 0.00283862
888 0.00301868
900 0.00263259
912 0.00245136
924 0.00339309
936 0.0090332
948 0.303495
960 0.00694374
972 0.00365792
984 0.00324174
996 0.00832139
1008 0.0610487
1020 0.00329916
1032 0.00322077
1044 0.00737709
1056 0.13109
1068 0.0269261
1080 0.00446598
1092 0.00409
1104 0.0322593
1116 0.0798225
1128 0.00339057
1140 0.00267679
1152 0.00613369
1164 0.05918
1176 0.00295684
1188 0.00262369
1200 0.00780178
1212 0.0342016
1224 0.00399157
1236 0.00630402
1248 0.0894043
1260 0.0891653
1272 0.00542981
1284 0.0029516
1296 0.00225692
1308 0.00248806
1320 0.00278416
1332 0.018016
1344 0.0331997
1356 0.00419895
1368 0.00463061
1380 0.043432
1392 0.00867393
1404 0.00625558
1416 0.0608596
1428 0.108807
1440 0.0065727
1452 0.00775207
1464 0.0495811
1476 0.00587881
1488 0.014625
1500 0.0846422
1512 0.0108891
1524 0.00678429
1536 0.0302588
1548 0.006333
1560 0.0054982
1572 0.0960824
1584 0.00667309
1596 0.00414087
1608 0.00367459
1620 0.00433315
1632 0.00999277
1644 0.0806347
1656 0.0082385
1668 0.00892612
1680 0.0194475
1692 0.00851506
1704 0.0623286
1716 0.117102
1728 0.0101793
1740 0.0214248
1752 0.0183782
1764 0.0034403
1776 0.00264109
1788 0.00325034
1800 0.0138094
1812 0.0315426
1824 0.00980823
1836 0.0401081
1848 0.0238042
1860 0.0033789
1872 0.00232667
1884 0.00299025
1896 0.0251162
1908 0.00961589
1920 0.008394
1932 0.0179921
1944 0.00629203
1956 0.0536745
1968 0.0129744
1980 0.0210065
1992 0.0287477
2004 0.0096649
2016 0.0508109
2028 0.0077114
2040 0.00572792
2052 0.0103818
2064 0.0384608
2076 0.0620564
2088 0.00474885
2100 0.00276015
2112 0.0117826
2124 0.0148495
2136 0.0142585
2148 0.0178431
2160 0.0148812
2172 0.02729
2184 0.0277302
2196 0.00747417
2208 0.0137172
2220 0.01287
2232 0.0181648
2244 0.00817127
2256 0.0161434
2268 0.0133014
2280 0.0193811
2292 0.00780288
2304 0.00241067
2316 0.0022893
2328 0.0124158
2340 0.00523654
2352 0.00870891
2364 0.013402
2376 0.0440102
2388 0.0226775
2400 0.0153011
2412 0.0142483
2424 0.0160126
2436 0.0140058
2448 0.0116712
2460 0.0198935
2472 0.0325632
2484 0.0150504
2496 0.00543092
2508 0.014163
2520 0.031721
2532 0.00867748
2544 0.00935299
2556 0.00789479
2568 0.0122192
2580 0.0122029
2592 0.0144355
2604 0.00375495
2616 0.00446732
2628 0.0100191
2640 0.0166283
2652 0.0246106
2664 0.00703763
2676 0.00236947
2688 0.00349049
2700 0.00524732
2712 0.00839002
2724 0.015444
2736 0.0234737
2748 0.0118572
2760 0.00832851
2772 0.0111209
2784 0.0152337
2796 0.00589123
2808 0.00848074
2820 0.0141013
2832 0.00270525
2844 0.00469525
2856 0.0072304
2868 0.0121926
2880 0.00677218
2892 0.0154885
2904 0.0236189
2916 0.00911139
2928 0.00727234
2940 0.00733969
2952 0.00626602
2964 0.00803397
2976 0.0082108
2988 0.00480104
3000 0.00414465
3012 0.00522663
3024 0.0101567
3036 0.00901808
3048 0.00709101
3060 0.0113791
3072 0.00992647
3084 0.0122806
3096 0.0140134
3108 0.00992611
3120 0.0137792
3132 0.0158514
3144 0.0085513
3156 0.00717929
3168 0.0114154
3180 0.0107919
3192 0.016736
3204 0.0191338
3216 0.00821123
3228 0.00773227
3240 0.00417831
3252 0.00477128
3264 0.00943781
3276 0.00976514
3288 0.00394304
3300 0.00312926
3312 0.00365707
3324 0.0051817
3336 0.00604767
3348 0.00976227
3360 0.00466111
3372 0.00379136
3384 0.00680642
3396 0.0086229
3408 0.00782545
3420 0.00840868
3432 0.0130825
3444 0.0158591
3456 0.0199138
3468 0.022632
3480 0.0337097
3487 0.00154009

File: BTO_300K_tth.xy
0.000000000000000000e+00 0.000286767
12 0.0116867
24 0.0125899
36 0.0028996
48 0.0030263
60 0.0032272
72 0.00340898
84 0.00379697
96 0.00370731
108 0.00357107
120 0.00347458
132 0.00341885
144 0.00328538
156 0.00306412
168 0.00300574
180 0.00281373
192 0.00271282
204 0.00252893
216 0.0024813
228 0.00238916
240 0.00242196
252 0.00247532
264 0.00243091
276 0.0025564
288 0.00282861
300 0.00249878
312 0.00235929
324 0.00335545
336 0.0710727
348 0.00181403
360 0.00450723
372 0.00102806
384 0.000880504
396 0.000962889
408 0.00101323
420 0.00147407
432 0.00148196
444 0.00246327
456 0.00505709
468 0.0827868
480 0.0248152
492 0.00358084
504 0.00175067
516 0.00187653
528 0.00055694
540 0.000504311
552 0.000645135
564 0.0018129
576 0.0598783
588 0.00506428
600 0.000993245
612 0.000690317
624 0.00216972
636 0.00175238
648 0.0024482
660 0.0188156
672 0.328451
684 0.00467867
696 0.00218788
708 0.0010188
720 0.0009866
732 0.00170344
744 0.0451449
756 0.00785173
768 0.00108222
780 0.00118162
792 0.00205321
804 0.00556484
816 0.179223
828 0.023264
840 0.00328128
852 0.00129501
864 0.000902497
876 0.000450814
888 0.000904625
900 0.000262965
912 0.000550436
924 0.00155138
936 0.00710322
948 0.296567
960 0.00524642
972 0.00161549
984 0.00140938
996 0.00655429
1008 0.059218
1020 0.00142109
1032 0.00165256
1044 0.00553179
1056 0.125485
1068 0.024589
1080 0.00269531
1092 0.002422
1104 0.0320544
1116 0.0778722
1128 0.00172314
1140 0.000963547
1152 0.00429569
1164 0.0556607
1176 0.00128609
1188 0.000998609
1200 0.00610076
1212 0.0325502
1224 0.00234518
1236 0.00466641
1248 0.0898702
1260 0.0862927
1272 0.00343227
1284 0.000893712
1296 0.000748173
1308 0.000394518
1320 0.00106396
1332 0.0164815
1344 0.0331405
1356 0.00225152
1368 0.00292721
1380 0.0406012
1392 0.00616782
1404 0.00370935
1416 0.0590532
1428 0.107772
1440 0.00392765
1452 0.00537936
1464 0.0454167
1476 0.00306997
1488 0.0124983
1500 0.0815713
1512 0.00790723
1524 0.00411829
1536 0.0264983
1548 0.00374753
1560 0.00296722
1572 0.0949707
1584 0.0037404
1596 0.00112774
1608 0.000989531
1620 0.00115774
1632 0.0070133
1644 0.0781851
1656 0.00551009
1668 0.00644681
1680 0.0163073
1692 0.00607068
1704 0.0592922
1716 0.117728
1728 0.00785469
1740 0.0178308
1752 0.0153808
1764 0.000819062
1776 0.000648645
1788 0.00112558
1800 0.0122968
1812 0.0300752
1824 0.00811143
1836 0.0357033
1848 0.0209522
1860 0.00168953
1872 0.000273177
1884 0.00105396
1896 0.0243074
1908 0.00836622
1920 0.00705577
1932 0.0167234
1944 0.00479141
1956 0.0521566
1968 0.0114599
1980 0.0202562
1992 0.0274722
2004 0.00867633
2016 0.0483477
2028 0.00719175
2040 0.00426454
2052 0.00937686
2064 0.0377759
2076 0.0623452
2088 0.00338984
2100 0.00168125
2112 0.01111
2124 0.0130096
2136 0.0128752
2148 0.0164395
2160 0.0140166
2172 0.0264624
2184 0.0261659
2196 0.00584411
2208 0.0126421
2220 0.0121632
2232 0.0172242
2244 0.00677429
2256 0.0138265
2268 0.0119969
2280 0.0176274
2292 0.0057736
2304 0.000354464
2316 0.000430135
2328 0.0109118
2340 0.00263737
2352 0.00610089
2364 0.0109888
2376 0.0412576
2388 0.0205255
2400 0.0129535
2412 0.011717
2424 0.0133985
2436 0.0109447
2448 0.00904596
2460 0.0176577
2472 0.0292324
2484 0.0119876
2496 0.00301625
2508 0.0122008
2520 0.029046
2532 0.00547061
2544 0.00715835
2556 0.00533204
2568 0.0101532
2580 0.00922896
2592 0.0120859
2604 0.000838395
2616 0.00175467
2628 0.00774213
2640 0.0139899
2652 0.0212158
2664 0.00455089
2676 0.00104814
2688 0.000795049
2700 0.00342774
2712 0.00764551
2724 0.0144008
2736 0.0226101
2748 0.0102094
2760 0.00686558
2772 0.0100224
2784 0.0137061
2796 0.00405198
2808 0.00718753
2820 0.0117682
2832 0.000507749
2844 0.00280314
2856 0.0057941
2868 0.0109526
2880 0.00561672
2892 0.0134539
2904 0.022816
2916 0.00721315
2928 0.00566406
2940 0.00606194
2952 0.00427794
2964 0.00589866
2976 0.00753248
2988 0.0034005
3000 0.00193314
3012 0.00206111
3024 0.00817366
3036 0.00573112
3048 0.00492177
3060 0.00810265
3072 0.00672962
3084 0.00619491
3096 0.0104965
3108 0.00507034
3120 0.0115728
3132 0.0119907
3144 0.00349705
3156 0.00354591
3168 0.00831249
3180 0.0061524
3192 0.01138
3204 0.0158671
3216 0.00505795
3228 0.00352884
3240 0.00325807
3252 0.00156451
3264 0.00619621
3276 0.00743433
3288 0.00241289
3300 0.00185159
3312 0.00322274
3324 0.00461539
3336 0.00655396
3348 0.0108593
3360 0.0045495
3372 0.00711386
3384 0.00545582
3396 0.00545004
3408 0.0035153
3420 0.0042565
3432 0.00289262
3444 0.00987884
3456 0.0135169
3468 0.0110734
3480 0.0151317
3487 0.0206107