Folder: pub-Maffettone_2021_04/constrainednmf/example_data/BaTiO3_xrd_ramp

File: BTO_150K_tth.xy
0.000000000000000000e+00 0.000930581
12 0.00994004
24 0.0108928
36 0.00270606
48 0.00284826
60 0.0029005
72 0.00309521
84 0.00344234
96 0.00341929
108 0.00338799
120 0.00339846
132 0.0033874
144 0.00337144
156 0.00330845
168 0.00331756
180 0.00317449
192 0.00311112
204 0.00299196
216 0.00290312
228 0.0029212
240 0.0028885
252 0.00290046
264 0.00296038
276 0.00295287
288 0.0032596
300 0.00304662
312 0.00282975
324 0.00362638
336 0.0672908
348 0.00271059
360 0.00479396
372 0.00164151
384 0.00178692
396 0.00157213
408 0.00148447
420 0.00189602
432 0.00171069
444 0.00238907
456 0.00472905
468 0.0579282
480 0.0273548
492 0.00380663
504 0.00219453
516 0.00239061
528 0.000569614
540 0.000602753
552 0.000927204
564 0.00178877
576 0.0443904
588 0.00602444
600 0.00159467
612 0.00107518
624 0.00243986
636 0.00227245
648 0.0096841
660 0.0126914
672 0.267286
684 0.00533372
696 0.00362388
708 0.00168102
720 0.00126022
732 0.00165581
744 0.0196415
756 0.0101232
768 0.0012589
780 0.00208564
792 0.00191242
804 0.00462262
816 0.0913233
828 0.0307961
840 0.00339216
852 0.00128339
864 0.00119826
876 0.000925578
888 0.00139568
900 0.000825602
912 0.00100942
924 0.00135751
936 0.00574843
948 0.353052
960 0.00638909
972 0.00208778
984 0.00267812
996 0.00415907
1008 0.078289
1020 0.00214311
1032 0.00172477
1044 0.00445971
1056 0.0941114
1068 0.0337152
1080 0.00304541
1092 0.0026603
1104 0.012033
1116 0.065149
1128 0.00183706
1140 0.00109847
1152 0.00413664
1164 0.115341
1176 0.00123488
1188 0.000870476
1200 0.00365016
1212 0.0372558
1224 0.00223776
1236 0.0040503
1248 0.0433599
1260 0.112124
1272 0.00431398
1284 0.00119996
1296 0.000662196
1308 0.000740478
1320 0.000873626
1332 0.00447239
1344 0.0393181
1356 0.00375078
1368 0.00226402
1380 0.0407836
1392 0.00840621
1404 0.0036263
1416 0.0257589
1428 0.0835117
1440 0.00541728
1452 0.00525731
1464 0.0712669
1476 0.00368494
1488 0.00782568
1500 0.13421
1512 0.0124294
1524 0.00418866
1536 0.0428495
1548 0.00640816
1560 0.00335371
1572 0.0577683
1584 0.00713096
1596 0.00219542
1608 0.00153549
1620 0.00226401
1632 0.00546417
1644 0.0971643
1656 0.00806366
1668 0.0046493
1680 0.0257597
1692 0.00536826
1704 0.0309168
1716 0.132865
1728 0.00853685
1740 0.0212634
1752 0.01189
1764 0.00184771
1776 0.000749244
1788 0.00143129
1800 0.00725997
1812 0.039566
1824 0.00530653
1836 0.0550644
1848 0.0238657
1860 0.00215071
1872 0.000551763
1884 0.000609715
1896 0.0137199
1908 0.00831185
1920 0.00355746
1932 0.0241454
1944 0.0039458
1956 0.0477688
1968 0.0144184
1980 0.010333
1992 0.031372
2004 0.00535444
2016 0.0549636
2028 0.00612489
2040 0.00648023
2052 0.00489936
2064 0.0206928
2076 0.0727025
2088 0.00518315
2100 0.000961931
2112 0.00291583
2124 0.0294558
2136 0.010618
2148 0.0189835
2160 0.011987
2172 0.0148213
2184 0.0399263
2196 0.00460832
2208 0.016033
2220 0.00461073
2232 0.0305399
2244 0.00637613
2256 0.0189521
2268 0.00538712
2280 0.0349062
2292 0.00847019
2304 0.000814968
2316 0.000861446
2328 0.00544278
2340 0.00330754
2352 0.0107196
2364 0.00787772
2376 0.0406962
2388 0.0185343
2400 0.0175072
2412 0.00842318
2424 0.0181569
2436 0.0105235
2448 0.0149211
2460 0.0106421
2472 0.0498714
2484 0.0146908
2496 0.00372791
2508 0.00608778
2520 0.0388078
2532 0.00809092
2544 0.0107999
2556 0.00525056
2568 0.011592
2580 0.0119748
2592 0.0147013
2604 0.00186113
2616 0.00217836
2628 0.0102182
2640 0.00902332
2652 0.0401711
2664 0.00819547
2676 0.00136051
2688 0.00171654
2700 0.00284462
2712 0.00996828
2724 0.0102633
2736 0.0315839
2748 0.0099936
2760 0.00766804
2772 0.0106791
2784 0.0209197
2796 0.0108701
2808 0.00660945
2820 0.0156288
2832 0.00154795
2844 0.000830643
2856 0.008426
2868 0.0089265
2880 0.00701214
2892 0.0129628
2904 0.0338174
2916 0.0117992
2928 0.00623764
2940 0.00929229
2952 0.00638353
2964 0.00933346
2976 0.0105272
2988 0.00507309
3000 0.000786662
3012 0.00481332
3024 0.00765633
3036 0.00987994
3048 0.008304
3060 0.0101733
3072 0.0113499
3084 0.00865776
3096 0.0170292
3108 0.00835471
3120 0.0113908
3132 0.0284281
3144 0.00621961
3156 0.00405775
3168 0.0113179
3180 0.0111504
3192 0.0135491
3204 0.024488
3216 0.00850887
3228 0.00427801
3240 0.00103503
3252 0.00363117
3264 0.00582408
3276 0.0168776
3288 0.00215648
3300 0.000615673
3312 0.00508517
3324 0.002589
3336 0.00784891
3348 0.0159353
3360 0.00885268
3372 0.00422545
3384 0.00899016
3396 0.00776752
3408 0.00770832
3420 0.0055712
3432 0.00724083
3444 0.0143384
3456 0.0172101
3468 0.0178501
3480 0.0236043
3487 7.48528e-05

File: BTO_155K_tth.xy
0.000000000000000000e+00 0.000624454
12 0.0100195
24 0.010959
36 0.0028581
48 0.0030364
60 0.00311763
72 0.00331318
84 0.00361938
96 0.00360412
108 0.00347426
120 0.00347869
132 0.00343188
144 0.00334237
156 0.00328942
168 0.00317079
180 0.00306338
192 0.00293352
204 0.00275974
216 0.00268772
228 0.0026035
240 0.00257059
252 0.00258909
264 0.00256927
276 0.00260271
288 0.00290154
300 0.0027091
312 0.00259859
324 0.00334559
336 0.0668776
348 0.00240383
360 0.00456032
372 0.0015094
384 0.00165112
396 0.00139152
408 0.00136514
420 0.00176863
432 0.00164874
444 0.00238653
456 0.00464538
468 0.0586024
480 0.0271196
492 0.00365341
504 0.00213078
516 0.00225424
528 0.000749637
540 0.00058748
552 0.000787908
564 0.00173143
576 0.0445546
588 0.00596013
600 0.0014405
612 0.00110883
624 0.00228031
636 0.00222458
648 0.0095461
660 0.0127364
672 0.265002
684 0.00531247
696 0.00339207
708 0.00149907
720 0.000918551
732 0.00150119
744 0.019751
756 0.00989047
768 0.00127743
780 0.00205124
792 0.00176057
804 0.00473032
816 0.0918758
828 0.0304387
840 0.00345606
852 0.00137881
864 0.000965676
876 0.000994063
888 0.00126042
900 0.000608741
912 0.00078571
924 0.00147411
936 0.00576627
948 0.352643
960 0.0062305
972 0.00194973
984 0.00240971
996 0.00422159
1008 0.0780318
1020 0.00207594
1032 0.00159863
1044 0.0045211
1056 0.0957861
1068 0.0338765
1080 0.00310091
1092 0.00263771
1104 0.0123236
1116 0.0651327
1128 0.00207513
1140 0.00116666
1152 0.00404299
1164 0.113752
1176 0.00164613
1188 0.000958142
1200 0.0038228
1212 0.0368601
1224 0.00229222
1236 0.00377641
1248 0.0439704
1260 0.111229
1272 0.00438464
1284 0.00126118
1296 0.000672084
1308 0.000754768
1320 0.0011343
1332 0.00456345
1344 0.0384566
1356 0.00355294
1368 0.00243541
1380 0.0408158
1392 0.00845757
1404 0.00316801
1416 0.0260462
1428 0.0824205
1440 0.00515369
1452 0.0047124
1464 0.0706119
1476 0.00354287
1488 0.00766182
1500 0.133865
1512 0.012231
1524 0.00402278
1536 0.042445
1548 0.00616082
1560 0.00308067
1572 0.0576667
1584 0.00643821
1596 0.00204999
1608 0.00145996
1620 0.00185279
1632 0.00504232
1644 0.0973144
1656 0.00800704
1668 0.00465639
1680 0.025429
1692 0.00510127
1704 0.0317127
1716 0.13064
1728 0.00882938
1740 0.0214118
1752 0.0120187
1764 0.00135215
1776 0.000503425
1788 0.00101176
1800 0.00693583
1812 0.0392722
1824 0.00562662
1836 0.0554595
1848 0.0242277
1860 0.00226904
1872 0.000404807
1884 0.00049737
1896 0.0140937
1908 0.00820476
1920 0.00383925
1932 0.0239724
1944 0.00399997
1956 0.0478621
1968 0.0148238
1980 0.0105235
1992 0.0315164
2004 0.0059261
2016 0.0552945
2028 0.00641687
2040 0.00686746
2052 0.00557552
2064 0.0213908
2076 0.0715334
2088 0.00547184
2100 0.00146418
2112 0.00308489
2124 0.0297309
2136 0.0109681
2148 0.0194338
2160 0.0122532
2172 0.0151619
2184 0.0396924
2196 0.00466487
2208 0.0164114
2220 0.00504984
2232 0.030345
2244 0.00704394
2256 0.0191057
2268 0.00600307
2280 0.0345444
2292 0.00883261
2304 0.000937196
2316 0.000282283
2328 0.0053395
2340 0.00296242
2352 0.0104907
2364 0.00782477
2376 0.0405456
2388 0.0182374
2400 0.0171935
2412 0.00822541
2424 0.0183447
2436 0.0102975
2448 0.0146167
2460 0.0101646
2472 0.0493233
2484 0.0142506
2496 0.00359763
2508 0.00632163
2520 0.0386976
2532 0.0078536
2544 0.010369
2556 0.00571435
2568 0.0116212
2580 0.0121429
2592 0.0147537
2604 0.00205091
2616 0.00172849
2628 0.00985969
2640 0.00904429
2652 0.0395721
2664 0.00814867
2676 0.000819556
2688 0.0014662
2700 0.00287068
2712 0.0100163
2724 0.0101834
2736 0.0315678
2748 0.0100009
2760 0.0074968
2772 0.0111452
2784 0.0210758
2796 0.0111059
2808 0.00693647
2820 0.0162238
2832 0.00253259
2844 0.00158981
2856 0.00926599
2868 0.00923915
2880 0.00670816
2892 0.0145529
2904 0.0347063
2916 0.0114669
2928 0.00643038
2940 0.010491
2952 0.00720009
2964 0.00848602
2976 0.00971167
2988 0.00489774
3000 0.000523978
3012 0.00462004
3024 0.0079638
3036 0.0097481
3048 0.00767351
3060 0.00971501
3072 0.0107999
3084 0.00772787
3096 0.0149485
3108 0.00835293
3120 0.0107889
3132 0.0272461
3144 0.00506572
3156 0.00327705
3168 0.0112028
3180 0.00994718
3192 0.0110352
3204 0.0236741
3216 0.00736706
3228 0.00336631
3240 0.000975586
3252 0.00210426
3264 0.00592978
3276 0.0151556
3288 0.00229856
3300 0.00118765
3312 0.00424953
3324 0.00263805
3336 0.00696446
3348 0.0143689
3360 0.00923731
3372 0.00356929
3384 0.00571528
3396 0.00949675
3408 0.0055206
3420 0.00637143
3432 0.00422249
3444 0.011829
3456 0.00960154
3468 0.0173292
3480 0.0137156
3487 0.0369925

File: BTO_160K_tth.xy
0.000000000000000000e+00 0.000153751
12 0.00989634
24 0.0109507
36 0.00296949
48 0.00318426
60 0.00325605
72 0.0033923
84 0.00371281
96 0.00354517
108 0.00344647
120 0.00330771
132 0.00319744
144 0.00303108
156 0.00284621
168 0.00266925
180 0.00246207
192 0.00229747
204 0.00206868
216 0.00200601
228 0.00192725
240 0.00187505
252 0.00184583
264 0.00183105
276 0.00192722
288 0.00219154
300 0.0020326
312 0.00188082
324 0.00266646
336 0.066322
348 0.00185741
360 0.00395498
372 0.000850892
384 0.00122793
396 0.000886244
408 0.000882514
420 0.00142878
432 0.00115095
444 0.00207847
456 0.00429084
468 0.0588159
480 0.0267105
492 0.00331194
504 0.00184003
516 0.00196014
528 0.000307856
540 0.000325287
552 0.000471553
564 0.00152334
576 0.0445529
588 0.00554589
600 0.00119703
612 0.000638748
624 0.00188794
636 0.00180559
648 0.00899703
660 0.0122965
672 0.262962
684 0.0048573
696 0.00284184
708 0.000945104
720 0.000717123
732 0.00110238
744 0.0196364
756 0.0092371
768 0.000711046
780 0.0012466
792 0.00126429
804 0.00415565
816 0.0927599
828 0.0296904
840 0.0025476
852 0.000899599
864 0.000606
876 0.000517233
888 0.000873424
900 0.000238682
912 0.000497692
924 0.000968801
936 0.00552157
948 0.352787
960 0.00560019
972 0.00164043
984 0.00216381
996 0.0041589
1008 0.0770422
1020 0.00184151
1032 0.0014697
1044 0.00420819
1056 0.0971554
1068 0.033795
1080 0.00285809
1092 0.00280576
1104 0.0122987
1116 0.0643511
1128 0.00202841
1140 0.0010571
1152 0.00399197
1164 0.112853
1176 0.00144687
1188 0.00075121
1200 0.00360429
1212 0.0364899
1224 0.0021107
1236 0.00368281
1248 0.0440562
1260 0.110695
1272 0.00391535
1284 0.000885655
1296 0.00040183
1308 0.000433941
1320 0.000642371
1332 0.00423106
1344 0.0377088
1356 0.00328517
1368 0.00185186
1380 0.0409112
1392 0.0078974
1404 0.00277072
1416 0.0265464
1428 0.0814374
1440 0.00450927
1452 0.0043114
1464 0.0703041
1476 0.0033015
1488 0.00664542
1500 0.132785
1512 0.0117245
1524 0.00304795
1536 0.0417895
1548 0.00534744
1560 0.00276877
1572 0.0577505
1584 0.00525144
1596 0.00120289
1608 0.000675637
1620 0.0014837
1632 0.00456471
1644 0.0967846
1656 0.00715637
1668 0.00383687
1680 0.0246515
1692 0.00469762
1704 0.0316364
1716 0.128845
1728 0.00843603
1740 0.0212235
1752 0.0113894
1764 0.00131714
1776 0.000581799
1788 0.0008334
1800 0.00704008
1812 0.0381591
1824 0.00546666
1836 0.0560267
1848 0.0242339
1860 0.00208335
1872 0.000679786
1884 0.0011286
1896 0.0139713
1908 0.00800111
1920 0.00396335
1932 0.0242349
1944 0.00441954
1956 0.0482168
1968 0.0148916
1980 0.0109247
1992 0.0314881
2004 0.00604847
2016 0.0553681
2028 0.00704333
2040 0.00737747
2052 0.0058914
2064 0.0223105
2076 0.0703661
2088 0.00562863
2100 0.00197115
2112 0.00315934
2124 0.0301321
2136 0.0115074
2148 0.0197867
2160 0.0122596
2172 0.0155235
2184 0.0392515
2196 0.00467266
2208 0.0161476
2220 0.00542535
2232 0.02997
2244 0.00674373
2256 0.0191353
2268 0.00563325
2280 0.0337865
2292 0.00880609
2304 0.00084251
2316 0.000256528
2328 0.00526079
2340 0.00231752
2352 0.0102948
2364 0.00737249
2376 0.0402764
2388 0.0175156
2400 0.0164936
2412 0.00799833
2424 0.0172205
2436 0.00954469
2448 0.0139177
2460 0.0093116
2472 0.0484311
2484 0.0138359
2496 0.00276305
2508 0.00531777
2520 0.0379806
2532 0.0069572
2544 0.00959077
2556 0.00494769
2568 0.0101712
2580 0.0114492
2592 0.0137617
2604 0.00166407
2616 0.000906259
2628 0.00916425
2640 0.00844
2652 0.0390987
2664 0.00801032
2676 0.000673124
2688 0.00194182
2700 0.00267801
2712 0.00976256
2724 0.00981076
2736 0.0310062
2748 0.0100102
2760 0.00744045
2772 0.0107736
2784 0.0205113
2796 0.0106847
2808 0.00657569
2820 0.0159261
2832 0.00228242
2844 0.000903645
2856 0.0092026
2868 0.00846666
2880 0.00685648
2892 0.013778
2904 0.0331591
2916 0.0112859
2928 0.00609277
2940 0.00920813
2952 0.00695402
2964 0.00797624
2976 0.00872548
2988 0.004273
3000 0.000439595
3012 0.00442295
3024 0.00594982
3036 0.00911636
3048 0.00609157
3060 0.00906849
3072 0.00968076
3084 0.00896768
3096 0.0134677
3108 0.00629812
3120 0.00903336
3132 0.0254118
3144 0.00402471
3156 0.00138045
3168 0.00952536
3180 0.00861644
3192 0.0108361
3204 0.0226096
3216 0.00769442
3228 0.0032231
3240 0.000797382
3252 0.00290181
3264 0.00583539
3276 0.0159888
3288 0.00314829
3300 0.00185031
3312 0.00695754
3324 0.00228664
3336 0.00881627
3348 0.0176463
3360 0.00870949
3372 0.00711361
3384 0.00758352
3396 0.0115255
3408 0.00866094
3420 0.00466525
3432 0.00388644
3444 0.00946044
3456 0.00652511
3468 0.00723185
3480 0.00777828
3487 0.0154682

File: BTO_165K_tth.xy
0.000000000000000000e+00 0.000146653
12 0.0100997
24 0.0111528
36 0.0032598
48 0.00346453
60 0.00360211
72 0.00370801
84 0.00398382
96 0.0038268
108 0.00362957
120 0.0034597
132 0.00329856
144 0.00302657
156 0.00286557
168 0.00262351
180 0.00246379
192 0.00218268
204 0.00196855
216 0.00185192
228 0.00177501
240 0.00168084
252 0.00176896
264 0.00167613
276 0.00179675
288 0.00198975
300 0.0018654
312 0.00171078
324 0.00257015
336 0.0660573
348 0.00172528
360 0.00396867
372 0.00084046
384 0.00118287
396 0.000976475
408 0.000961194
420 0.00130198
432 0.0013177
444 0.00206979
456 0.00445173
468 0.0589119
480 0.0267018
492 0.00348948
504 0.00191471
516 0.00214814
528 0.000304981
540 0.000384233
552 0.00056814
564 0.00148441
576 0.0447894
588 0.00558107
600 0.00120975
612 0.000719643
624 0.00187955
636 0.00187683
648 0.00819061
660 0.0125549
672 0.260985
684 0.0050634
696 0.00307827
708 0.000859416
720 0.000729262
732 0.0010443
744 0.0196894
756 0.00931957
768 0.000605
780 0.00131955
792 0.00126178
804 0.00408558
816 0.0937307
828 0.0295199
840 0.00283698
852 0.000752068
864 0.000512928
876 0.000341554
888 0.00066011
900 0.000156707
912 0.000529094
924 0.00114425
936 0.0056952
948 0.35161
960 0.00571998
972 0.00181033
984 0.0023047
996 0.00425728
1008 0.076312
1020 0.00168987
1032 0.00154393
1044 0.00454951
1056 0.0996174
1068 0.0344414
1080 0.00306231
1092 0.00265123
1104 0.0124671
1116 0.0645299
1128 0.00206946
1140 0.000906835
1152 0.00406101
1164 0.111726
1176 0.00150703
1188 0.000698594
1200 0.00409649
1212 0.0361394
1224 0.00224773
1236 0.00403877
1248 0.0450854
1260 0.110397
1272 0.00420491
1284 0.00115332
1296 0.00036423
1308 0.000305151
1320 0.00062808
1332 0.00434374
1344 0.0366563
1356 0.00295267
1368 0.00180702
1380 0.0409096
1392 0.0077727
1404 0.00259823
1416 0.0264368
1428 0.0806442
1440 0.00424185
1452 0.00411551
1464 0.0697445
1476 0.00263154
1488 0.00669536
1500 0.131602
1512 0.0107528
1524 0.00312876
1536 0.0411255
1548 0.00500384
1560 0.0021084
1572 0.0574324
1584 0.00522191
1596 0.000660492
1608 0.000381369
1620 0.00102853
1632 0.00406203
1644 0.0964675
1656 0.00701645
1668 0.00333967
1680 0.0238706
1692 0.00435392
1704 0.0319208
1716 0.126493
1728 0.00774687
1740 0.0209286
1752 0.011333
1764 0.000834928
1776 0.00017962
1788 0.000768934
1800 0.00673132
1812 0.0375809
1824 0.00526358
1836 0.0561785
1848 0.024656
1860 0.00218554
1872 0.000598531
1884 0.00138182
1896 0.0142916
1908 0.00820214
1920 0.00433973
1932 0.0239899
1944 0.0047779
1956 0.048423
1968 0.0152742
1980 0.011489
1992 0.0311924
2004 0.00657895
2016 0.0557721
2028 0.0068537
2040 0.00789206
2052 0.00598197
2064 0.0229852
2076 0.0697588
2088 0.0059001
2100 0.00219722
2112 0.00368781
2124 0.0298979
2136 0.0116309
2148 0.0199283
2160 0.0124424
2172 0.0160737
2184 0.0387488
2196 0.00508627
2208 0.01598
2220 0.00523464
2232 0.0289618
2244 0.00706945
2256 0.0193391
2268 0.0059386
2280 0.034215
2292 0.00901477
2304 0.000780314
2316 0.000215198
2328 0.00498672
2340 0.00196074
2352 0.0102215
2364 0.0075449
2376 0.0398094
2388 0.0169576
2400 0.0159887
2412 0.00739797
2424 0.0166153
2436 0.00915994
2448 0.0133795
2460 0.00904375
2472 0.0475609
2484 0.0130987
2496 0.0025203
2508 0.00506915
2520 0.0365398
2532 0.00641769
2544 0.00875764
2556 0.00443642
2568 0.00984042
2580 0.0112719
2592 0.0124318
2604 0.000667121
2616 0.00109742
2628 0.0089985
2640 0.00860894
2652 0.0383377
2664 0.00759839
2676 0.000696371
2688 0.00132361
2700 0.00258876
2712 0.00969663
2724 0.00884268
2736 0.0308106
2748 0.0108047
2760 0.00714474
2772 0.0115102
2784 0.0195392
2796 0.0109424
2808 0.00622696
2820 0.0153885
2832 0.00236247
2844 0.00147284
2856 0.00905129
2868 0.00873178
2880 0.00715662
2892 0.0147873
2904 0.0320582
2916 0.0121672
2928 0.00679264
2940 0.0098463
2952 0.00701884
2964 0.00902108
2976 0.0100973
2988 0.00388717
3000 0.000570494
3012 0.00583014
3024 0.00660577
3036 0.00913492
3048 0.00699065
3060 0.00893717
3072 0.00988341
3084 0.00763938
3096 0.0131719
3108 0.00593493
3120 0.0102093
3132 0.0251639
3144 0.00361255
3156 0.0036868
3168 0.00970512
3180 0.00851128
3192 0.0103146
3204 0.0227769
3216 0.00691869
3228 0.00263914
3240 0.00129078
3252 0.00243284
3264 0.00647652
3276 0.0155511
3288 0.00244491
3300 0.00143444
3312 0.00511796
3324 0.0027703
3336 0.00777575
3348 0.0154908
3360 0.00815917
3372 0.00707216
3384 0.00821602
3396 0.00780407
3408 0.00699975
3420 0.000927764
3432 0.00295665
3444 0.00810238
3456 0.00778098
3468 0.00729838
3480 0.00506497
3487 0.00613078

File: BTO_170K_tth.xy
0.000000000000000000e+00 0.00115427
12 0.0104468
24 0.0113167
36 0.00312151
48 0.00329547
60 0.00334055
72 0.00349005
84 0.00389708
96 0.00383078
108 0.00383259
120 0.00380032
132 0.0038205
144 0.00373875
156 0.00371893
168 0.00362445
180 0.00347732
192 0.00343715
204 0.00328002
216 0.00323239
228 0.00322948
240 0.00319378
252 0.00319701
264 0.00327226
276 0.00327274
288 0.00352818
300 0.00334061
312 0.00315159
324 0.00401388
336 0.0672242
348 0.00299163
360 0.00518751
372 0.00198288
384 0.00226258
396 0.00199966
408 0.00190165
420 0.00208496
432 0.00209281
444 0.00281741
456 0.00509065
468 0.0605731
480 0.0272872
492 0.00414538
504 0.00252301
516 0.00262165
528 0.00103321
540 0.000974303
552 0.00122781
564 0.0020845
576 0.0458205
588 0.00623608
600 0.00202486
612 0.0014428
624 0.00290233
636 0.00260479
648 0.00870385
660 0.0133551
672 0.258782
684 0.00577815
696 0.00373084
708 0.00209349
720 0.00157096
732 0.00193329
744 0.0210797
756 0.0102466
768 0.00150456
780 0.00228507
792 0.00234103
804 0.00524148
816 0.0962391
828 0.0301496
840 0.00388967
852 0.00176036
864 0.00158428
876 0.00134616
888 0.00151585
900 0.00115124
912 0.00117862
924 0.00181511
936 0.00643656
948 0.351483
960 0.00643571
972 0.00252567
984 0.0026383
996 0.00465397
1008 0.0757414
1020 0.00230167
1032 0.00198277
1044 0.00485764
1056 0.10258
1068 0.0353411
1080 0.00328018
1092 0.00313505
1104 0.013111
1116 0.0651272
1128 0.00238327
1140 0.00147215
1152 0.00434116
1164 0.109904
1176 0.0017781
1188 0.00121312
1200 0.00443772
1212 0.0364384
1224 0.00279103
1236 0.00427044
1248 0.0466728
1260 0.110335
1272 0.00459172
1284 0.00155053
1296 0.000949733
1308 0.00105202
1320 0.00153835
1332 0.00566608
1344 0.0363782
1356 0.00363617
1368 0.00280035
1380 0.0422829
1392 0.00912522
1404 0.00423393
1416 0.0285622
1428 0.0809255
1440 0.00531163
1452 0.00550317
1464 0.0706929
1476 0.00424074
1488 0.00818079
1500 0.131873
1512 0.0123535
1524 0.00460158
1536 0.04305
1548 0.00676993
1560 0.00383378
1572 0.0595684
1584 0.00641373
1596 0.00260421
1608 0.00202007
1620 0.00272407
1632 0.0058262
1644 0.098187
1656 0.00832644
1668 0.00486084
1680 0.025074
1692 0.00606173
1704 0.0343638
1716 0.125451
1728 0.0089704
1740 0.0225793
1752 0.0124438
1764 0.00213988
1776 0.00136161
1788 0.0015309
1800 0.00795052
1812 0.0372306
1824 0.00572625
1836 0.0573478
1848 0.0253078
1860 0.00252648
1872 0.00108138
1884 0.0010147
1896 0.0138181
1908 0.00801143
1920 0.00422731
1932 0.0232535
1944 0.00416518
1956 0.0486473
1968 0.0149606
1980 0.0113438
1992 0.0300885
2004 0.00596302
2016 0.0553574
2028 0.00666797
2040 0.00704586
2052 0.00558705
2064 0.0225643
2076 0.0670334
2088 0.00526797
2100 0.00166243
2112 0.00319528
2124 0.0288365
2136 0.0117042
2148 0.0194775
2160 0.0121039
2172 0.0158072
2184 0.0377736
2196 0.00471972
2208 0.0150316
2220 0.00536455
2232 0.0289148
2244 0.00707095
2256 0.0188272
2268 0.00611685
2280 0.0338604
2292 0.00966585
2304 0.00101761
2316 0.00111526
2328 0.00582534
2340 0.0030282
2352 0.0109834
2364 0.00804983
2376 0.0413859
2388 0.0180225
2400 0.0171263
2412 0.00900022
2424 0.0181802
2436 0.0109684
2448 0.0150055
2460 0.0112815
2472 0.0485013
2484 0.015182
2496 0.00427253
2508 0.00693373
2520 0.0382263
2532 0.00793213
2544 0.0108474
2556 0.00637982
2568 0.0112435
2580 0.012776
2592 0.0138639
2604 0.00234595
2616 0.00234985
2628 0.010188
2640 0.0095134
2652 0.0390845
2664 0.00830184
2676 0.001511
2688 0.00252841
2700 0.0028425
2712 0.0103558
2724 0.00983728
2736 0.0304187
2748 0.0106745
2760 0.00719863
2772 0.0120918
2784 0.0192883
2796 0.0102406
2808 0.00678156
2820 0.0160448
2832 0.00119916
2844 0.00146239
2856 0.00918935
2868 0.008679
2880 0.00794564
2892 0.0147587
2904 0.0311194
2916 0.0117068
2928 0.00672312
2940 0.00964749
2952 0.0070615
2964 0.00858776
2976 0.00975569
2988 0.00517379
3000 0.00165876
3012 0.00538299
3024 0.00778593
3036 0.0102947
3048 0.00854446
3060 0.0104451
3072 0.0120002
3084 0.0104406
3096 0.0150387
3108 0.00856299
3120 0.0108307
3132 0.026697
3144 0.00535475
3156 0.00422666
3168 0.0110558
3180 0.0101622
3192 0.0136121
3204 0.0237051
3216 0.00871898
3228 0.00487667
3240 0.00300817
3252 0.00384646
3264 0.00787783
3276 0.0157818
3288 0.00364046
3300 0.00248284
3312 0.00523954
3324 0.0026589
3336 0.0053337
3348 0.0141435
3360 0.00761291
3372 0.00314323
3384 0.0081591
3396 0.00874522
3408 0.00258165
3420 0.00441282
3432 0.0032956
3444 0.01325
3456 0.0143162
3468 0.0161131
3480 0.0146792
3487 0.000519547