Folder: pub-Maffettone_2021_04/constrainednmf/example_data/BaTiO3_xrd_ramp (part 2)

File: BTO_175K_tth.xy
0.000000000000000000e+00 0.00106335
12 0.0103752
24 0.0110751
36 0.00279523
48 0.00287767
60 0.00293632
72 0.0030895
84 0.00349549
96 0.00344281
108 0.00343434
120 0.00342577
132 0.00344511
144 0.00350651
156 0.00335481
168 0.00329661
180 0.00325046
192 0.00314411
204 0.00301545
216 0.00301687
228 0.0029768
240 0.00295955
252 0.00293375
264 0.00296234
276 0.00298052
288 0.00331585
300 0.00303746
312 0.00282832
324 0.00371195
336 0.067094
348 0.00268823
360 0.00481753
372 0.00177179
384 0.00194435
396 0.00154353
408 0.00157896
420 0.00197759
432 0.00171393
444 0.00260751
456 0.00483315
468 0.0611379
480 0.0268454
492 0.0038614
504 0.00215405
516 0.00246475
528 0.000625291
540 0.00067652
552 0.000788098
564 0.00193227
576 0.0457154
588 0.00586516
600 0.00175663
612 0.00111387
624 0.00240175
636 0.00222016
648 0.00799084
660 0.0132795
672 0.255271
684 0.00551255
696 0.0036074
708 0.00154449
720 0.00123622
732 0.00176944
744 0.0214299
756 0.00994649
768 0.0011654
780 0.00159652
792 0.00193283
804 0.00473497
816 0.0979344
828 0.0299144
840 0.00355012
852 0.00145654
864 0.00110383
876 0.00116521
888 0.00126961
900 0.000920196
912 0.00103135
924 0.00174896
936 0.00607413
948 0.351136
960 0.00610459
972 0.00239484
984 0.00236361
996 0.00461184
1008 0.0745527
1020 0.0019052
1032 0.00164571
1044 0.00448874
1056 0.105642
1068 0.0353148
1080 0.00302557
1092 0.00274432
1104 0.0128831
1116 0.0647737
1128 0.00193988
1140 0.00118091
1152 0.00390322
1164 0.108323
1176 0.00129494
1188 0.00083082
1200 0.00395644
1212 0.0357346
1224 0.00227349
1236 0.00403538
1248 0.0470919
1260 0.109875
1272 0.00394516
1284 0.00115513
1296 0.000538759
1308 0.00081455
1320 0.00102657
1332 0.00494726
1344 0.034749
1356 0.00361903
1368 0.00255991
1380 0.0427111
1392 0.00899463
1404 0.00345714
1416 0.0290805
1428 0.0804116
1440 0.00496724
1452 0.00545858
1464 0.0704531
1476 0.00391232
1488 0.00838029
1500 0.131205
1512 0.012361
1524 0.00457757
1536 0.0427112
1548 0.00650319
1560 0.00322221
1572 0.0598223
1584 0.00651822
1596 0.00225104
1608 0.00189539
1620 0.00272097
1632 0.00558965
1644 0.0980991
1656 0.00836004
1668 0.00513764
1680 0.0246449
1692 0.00576449
1704 0.0354505
1716 0.123558
1728 0.00891419
1740 0.0227745
1752 0.0123885
1764 0.00191515
1776 0.000794026
1788 0.00156631
1800 0.00810584
1812 0.0363792
1824 0.00567269
1836 0.0579281
1848 0.0259789
1860 0.00238096
1872 0.000429943
1884 0.0011751
1896 0.0141256
1908 0.00779265
1920 0.0040792
1932 0.0228388
1944 0.00395429
1956 0.0490436
1968 0.0143295
1980 0.011457
1992 0.0292301
2004 0.00614078
2016 0.0550017
2028 0.00631279
2040 0.00669315
2052 0.0054673
2064 0.0231717
2076 0.0648349
2088 0.00512087
2100 0.00115553
2112 0.00295102
2124 0.0289869
2136 0.0115092
2148 0.0196811
2160 0.0113218
2172 0.0159134
2184 0.036935
2196 0.00427115
2208 0.0153907
2220 0.0049655
2232 0.027619
2244 0.00690392
2256 0.0187775
2268 0.00583789
2280 0.0335341
2292 0.00908383
2304 0.000782536
2316 0.000789551
2328 0.00583702
2340 0.0027102
2352 0.0106348
2364 0.0078932
2376 0.0406429
2388 0.0180722
2400 0.016526
2412 0.00812019
2424 0.0179693
2436 0.0103949
2448 0.0140665
2460 0.010886
2472 0.0477965
2484 0.0147405
2496 0.00383287
2508 0.00685813
2520 0.037822
2532 0.00762814
2544 0.00980547
2556 0.00621845
2568 0.010027
2580 0.0127024
2592 0.0135924
2604 0.0025093
2616 0.00144869
2628 0.00968073
2640 0.0098499
2652 0.038099
2664 0.00796705
2676 0.00102875
2688 0.00123112
2700 0.00280903
2712 0.00929028
2724 0.00954711
2736 0.030301
2748 0.0098716
2760 0.00698694
2772 0.011286
2784 0.0184034
2796 0.0109669
2808 0.00629471
2820 0.016208
2832 0.00196688
2844 0.000808099
2856 0.00899998
2868 0.00820774
2880 0.00707241
2892 0.014637
2904 0.0290702
2916 0.0116925
2928 0.00682747
2940 0.00964937
2952 0.00650728
2964 0.00826855
2976 0.0104766
2988 0.00552225
3000 0.000787989
3012 0.0056481
3024 0.00734531
3036 0.00908965
3048 0.00901082
3060 0.00930936
3072 0.0117387
3084 0.00988421
3096 0.0142818
3108 0.00850815
3120 0.0105697
3132 0.0255233
3144 0.00561003
3156 0.00382961
3168 0.0117593
3180 0.0113494
3192 0.0122149
3204 0.0228284
3216 0.00786979
3228 0.00279648
3240 0.00174583
3252 0.00230127
3264 0.00521573
3276 0.013197
3288 0.00207572
3300 0.00159476
3312 0.00414996
3324 0.00198668
3336 0.00390472
3348 0.010843
3360 0.00587852
3372 0.00260679
3384 0.00523471
3396 0.00829379
3408 0.00568858
3420 0.0059694
3432 0.00397209
3444 0.0136095
3456 0.0156507
3468 0.0186505
3480 0.0268984
3487 3.29889e-05

File: BTO_180K_tth.xy
0.000000000000000000e+00 8.11684e-05
12 0.00982356
24 0.0110621
36 0.00299036
48 0.00318255
60 0.00333377
72 0.00340364
84 0.00373619
96 0.00361619
108 0.00342784
120 0.00327233
132 0.0031759
144 0.00297384
156 0.00277021
168 0.00261467
180 0.00244029
192 0.00221157
204 0.00204807
216 0.00189361
228 0.00186404
240 0.00182852
252 0.00177679
264 0.00179039
276 0.00186338
288 0.00220603
300 0.00193917
312 0.00180716
324 0.00274516
336 0.0661443
348 0.00177338
360 0.00396531
372 0.000860277
384 0.00125883
396 0.000883705
408 0.000965833
420 0.00127344
432 0.00128717
444 0.00206902
456 0.00428515
468 0.0614468
480 0.0264889
492 0.00337616
504 0.00165772
516 0.00184581
528 0.000262989
540 0.000311771
552 0.000363679
564 0.00146064
576 0.045744
588 0.00536213
600 0.00113576
612 0.000669872
624 0.00191235
636 0.00174956
648 0.00767717
660 0.0128793
672 0.25154
684 0.00477007
696 0.00304939
708 0.0010068
720 0.000591942
732 0.000975472
744 0.0212251
756 0.00919873
768 0.000577537
780 0.00119948
792 0.00122098
804 0.00413029
816 0.0990144
828 0.0291286
840 0.00281275
852 0.00073612
864 0.000446102
876 0.000345654
888 0.000813835
900 7.3273e-05
912 0.000441662
924 0.00114912
936 0.00561123
948 0.349477
960 0.00577777
972 0.00182596
984 0.00218536
996 0.00435182
1008 0.0732696
1020 0.00165378
1032 0.00152978
1044 0.00448254
1056 0.108938
1068 0.0360141
1080 0.00324162
1092 0.00280133
1104 0.0132265
1116 0.0651681
1128 0.00175031
1140 0.000889219
1152 0.00392815
1164 0.106556
1176 0.00149268
1188 0.000790863
1200 0.00398459
1212 0.0354021
1224 0.00208406
1236 0.00374129
1248 0.0484047
1260 0.1101
1272 0.003932
1284 0.000893335
1296 0.000514723
1308 0.000263571
1320 0.000849424
1332 0.00455358
1344 0.0327665
1356 0.00288033
1368 0.00172663
1380 0.0423872
1392 0.00837428
1404 0.0028446
1416 0.029532
1428 0.0788525
1440 0.00428342
1452 0.00407109
1464 0.0692106
1476 0.0027496
1488 0.00705179
1500 0.128301
1512 0.0110378
1524 0.00321286
1536 0.0412412
1548 0.00501819
1560 0.0022603
1572 0.0593175
1584 0.00475624
1596 0.000901685
1608 0.000769281
1620 0.0012928
1632 0.00441558
1644 0.0966086
1656 0.0065521
1668 0.00377758
1680 0.0227693
1692 0.00486609
1704 0.0352189
1716 0.120364
1728 0.00789213
1740 0.0229259
1752 0.011575
1764 0.000742594
1776 0.0001999
1788 0.000744544
1800 0.00745705
1812 0.0351579
1824 0.00522445
1836 0.0583504
1848 0.0266087
1860 0.00214204
1872 0.000811872
1884 0.000957608
1896 0.0137646
1908 0.00777742
1920 0.00412129
1932 0.0224566
1944 0.00457328
1956 0.0495851
1968 0.0153506
1980 0.0121534
1992 0.029336
2004 0.00652007
2016 0.0559022
2028 0.00715567
2040 0.00772486
2052 0.00596829
2064 0.0247515
2076 0.0641959
2088 0.00585339
2100 0.00210102
2112 0.00410141
2124 0.0293156
2136 0.0125889
2148 0.0199172
2160 0.0122915
2172 0.0164913
2184 0.0365885
2196 0.00472768
2208 0.0150037
2220 0.00551611
2232 0.0262201
2244 0.00721546
2256 0.018599
2268 0.00587422
2280 0.033164
2292 0.00985038
2304 0.000615505
2316 0.000293111
2328 0.00527822
2340 0.00216246
2352 0.00974174
2364 0.00764261
2376 0.040003
2388 0.0166546
2400 0.0157304
2412 0.007765
2424 0.0165022
2436 0.00975536
2448 0.0131869
2460 0.0100668
2472 0.046767
2484 0.0140019
2496 0.0025871
2508 0.00586735
2520 0.0364803
2532 0.007031
2544 0.00867161
2556 0.00541076
2568 0.00847423
2580 0.0117393
2592 0.011742
2604 0.000900266
2616 0.000808393
2628 0.00838386
2640 0.00914065
2652 0.0366367
2664 0.0079529
2676 0.0002006
2688 0.00151161
2700 0.00248909
2712 0.00993885
2724 0.00954796
2736 0.0298209
2748 0.0103906
2760 0.00622218
2772 0.0113886
2784 0.0185116
2796 0.0110281
2808 0.00630747
2820 0.0165805
2832 0.00213909
2844 0.00103429
2856 0.00945374
2868 0.00772774
2880 0.0065911
2892 0.0150912
2904 0.0289287
2916 0.0119947
2928 0.00611631
2940 0.00918026
2952 0.00635976
2964 0.00652183
2976 0.00820238
2988 0.0042842
3000 0.000000000000000000e+00
3012 0.00352733
3024 0.0062389
3036 0.00755538
3048 0.00642225
3060 0.00797886
3072 0.00836841
3084 0.00889226
3096 0.0109396
3108 0.00622356
3120 0.00959538
3132 0.0227771
3144 0.00386534
3156 0.00153858
3168 0.00947638
3180 0.00804337
3192 0.0113672
3204 0.0215605
3216 0.00876522
3228 0.00318053
3240 0.000859099
3252 0.00204649
3264 0.00660629
3276 0.0139918
3288 0.00372456
3300 0.00159717
3312 0.00538087
3324 0.00271376
3336 0.00807945
3348 0.0148037
3360 0.0118481
3372 0.00641707
3384 0.00915377
3396 0.0103509
3408 0.00853055
3420 0.00375238
3432 0.00371939
3444 0.0115154
3456 0.0115667
3468 0.00861822
3480 0.00685897
3487 0.00171674

File: BTO_185K_tth.xy
0.000000000000000000e+00 0.000204682
12 0.00997911
24 0.0110868
36 0.00289959
48 0.00305111
60 0.00320648
72 0.00332346
84 0.00360838
96 0.00353433
108 0.00341792
120 0.00329508
132 0.00317054
144 0.00299251
156 0.00285757
168 0.00273582
180 0.00256059
192 0.00248821
204 0.00222489
216 0.00210507
228 0.00200543
240 0.00195331
252 0.00206111
264 0.00200755
276 0.00201956
288 0.00236297
300 0.00217079
312 0.00194219
324 0.0028985
336 0.0664472
348 0.00188318
360 0.0041178
372 0.000956536
384 0.00145558
396 0.000938197
408 0.00103228
420 0.00125516
432 0.00136437
444 0.00209712
456 0.00437798
468 0.0627069
480 0.0264381
492 0.00348947
504 0.00180467
516 0.00210751
528 0.000407214
540 0.000233318
552 0.000619851
564 0.00153351
576 0.0463903
588 0.00561047
600 0.00124758
612 0.000738172
624 0.0021156
636 0.00185614
648 0.00756105
660 0.0130705
672 0.248175
684 0.00497602
696 0.0032842
708 0.00131217
720 0.000741196
732 0.00108436
744 0.0222655
756 0.00940475
768 0.000815608
780 0.00115175
792 0.00142683
804 0.00427194
816 0.101763
828 0.0291358
840 0.00277955
852 0.000836261
864 0.000653177
876 0.000565872
888 0.000875491
900 0.000290041
912 0.000493719
924 0.00106061
936 0.00563217
948 0.34816
960 0.00573993
972 0.00177253
984 0.00203337
996 0.00405849
1008 0.0726289
1020 0.00173484
1032 0.00154225
1044 0.00448926
1056 0.113908
1068 0.0370296
1080 0.0032031
1092 0.0027667
1104 0.0134462
1116 0.0660554
1128 0.001766
1140 0.00100179
1152 0.0039632
1164 0.105254
1176 0.00115806
1188 0.000848774
1200 0.00413096
1212 0.034897
1224 0.00190758
1236 0.00363972
1248 0.0497134
1260 0.111744
1272 0.00358071
1284 0.0009273
1296 0.000462622
1308 0.000335705
1320 0.000745255
1332 0.00495486
1344 0.0313382
1356 0.00279316
1368 0.00191143
1380 0.0437207
1392 0.00893688
1404 0.0028493
1416 0.0310273
1428 0.0790451
1440 0.00440451
1452 0.00459051
1464 0.0694024
1476 0.00309938
1488 0.00767776
1500 0.126891
1512 0.0115224
1524 0.00344374
1536 0.0415424
1548 0.00534404
1560 0.00233386
1572 0.0602548
1584 0.00516158
1596 0.00119566
1608 0.000816756
1620 0.00157802
1632 0.00484492
1644 0.0970968
1656 0.00712524
1668 0.00425969
1680 0.0230492
1692 0.00516052
1704 0.0373977
1716 0.119326
1728 0.00788497
1740 0.023562
1752 0.0124649
1764 0.00109581
1776 0.000429932
1788 0.0009212
1800 0.00804051
1812 0.0347769
1824 0.00583096
1836 0.0595536
1848 0.0283256
1860 0.00187017
1872 0.000614025
1884 0.00128298
1896 0.0138369
1908 0.00753556
1920 0.00421863
1932 0.0222445
1944 0.00421228
1956 0.0497957
1968 0.0154994
1980 0.0124027
1992 0.0284782
2004 0.0065171
2016 0.0556353
2028 0.0072781
2040 0.00774573
2052 0.00576481
2064 0.025583
2076 0.0618853
2088 0.00592542
2100 0.00166248
2112 0.00382738
2124 0.0287272
2136 0.0132128
2148 0.0200354
2160 0.0118548
2172 0.0167031
2184 0.0364971
2196 0.00459043
2208 0.0146457
2220 0.00551424
2232 0.0253214
2244 0.00756248
2256 0.0182712
2268 0.00612016
2280 0.0324691
2292 0.0105403
2304 0.000826617
2316 0.000529015
2328 0.00580656
2340 0.00197025
2352 0.00992575
2364 0.00826859
2376 0.0400436
2388 0.0169786
2400 0.0157477
2412 0.00762091
2424 0.0169628
2436 0.0100983
2448 0.0130961
2460 0.0107726
2472 0.0460042
2484 0.0144492
2496 0.00251703
2508 0.00620581
2520 0.0363722
2532 0.00702157
2544 0.00883746
2556 0.00588294
2568 0.00915399
2580 0.0124706
2592 0.0115714
2604 0.00134936
2616 0.00161061
2628 0.00853009
2640 0.00996655
2652 0.036545
2664 0.00825195
2676 0.00101363
2688 0.00180884
2700 0.00263937
2712 0.0100334
2724 0.0103896
2736 0.0296207
2748 0.0112499
2760 0.00622261
2772 0.0124804
2784 0.017911
2796 0.0106477
2808 0.00665097
2820 0.0160956
2832 0.00196186
2844 0.00167458
2856 0.00959811
2868 0.00840894
2880 0.00658997
2892 0.0155043
2904 0.0273562
2916 0.011606
2928 0.00588769
2940 0.00940649
2952 0.00674434
2964 0.00731349
2976 0.00976951
2988 0.00439909
3000 0.00016591
3012 0.00467183
3024 0.00600975
3036 0.00921812
3048 0.00901238
3060 0.00771799
3072 0.00902495
3084 0.00805823
3096 0.0109537
3108 0.00627002
3120 0.0106639
3132 0.022707
3144 0.00425164
3156 0.00328847
3168 0.0106625
3180 0.00894355
3192 0.0111161
3204 0.0212783
3216 0.00788052
3228 0.00347497
3240 0.000360306
3252 0.00174543
3264 0.00758892
3276 0.0138555
3288 0.00315351
3300 0.00245297
3312 0.00566436
3324 0.00320488
3336 0.00826554
3348 0.0144515
3360 0.00753858
3372 0.00521482
3384 0.00655853
3396 0.0103677
3408 0.00726909
3420 0.00533329
3432 0.00252495
3444 0.00791653
3456 0.0107319
3468 0.0103355
3480 0.00889652
3487 0.000256837

File: BTO_190K_tth.xy
0.000000000000000000e+00 0.000333999
12 0.0103416
24 0.0113031
36 0.00313261
48 0.00325371
60 0.00344025
72 0.00356722
84 0.00386344
96 0.0036942
108 0.00362421
120 0.00351723
132 0.00336508
144 0.003242
156 0.00301531
168 0.00285236
180 0.00272516
192 0.00253772
204 0.00232152
216 0.00225106
228 0.00217797
240 0.00207859
252 0.00211871
264 0.00213083
276 0.00217104
288 0.00250097
300 0.0022761
312 0.00213545
324 0.0030221
336 0.0669967
348 0.00211913
360 0.0043616
372 0.00113075
384 0.00163726
396 0.00112574
408 0.00118716
420 0.00153603
432 0.00150019
444 0.0023117
456 0.00472225
468 0.0642521
480 0.0266003
492 0.00365285
504 0.00192587
516 0.00213553
528 0.000513121
540 0.00033632
552 0.000574947
564 0.00161174
576 0.0468343
588 0.00551405
600 0.00132115
612 0.000808607
624 0.00228592
636 0.00205503
648 0.00775084
660 0.0132914
672 0.243806
684 0.00496325
696 0.00340543
708 0.00125051
720 0.000829151
732 0.00129334
744 0.0233105
756 0.00952361
768 0.000959885
780 0.000958082
792 0.00136134
804 0.00445078
816 0.104498
828 0.0290843
840 0.00268594
852 0.000984598
864 0.000769137
876 0.000637367
888 0.000784446
900 0.000424534
912 0.000603004
924 0.00120208
936 0.00577413
948 0.346792
960 0.00561791
972 0.00187642
984 0.0020175
996 0.00438305
1008 0.0721695
1020 0.00180347
1032 0.00164614
1044 0.00472422
1056 0.120116
1068 0.0383543
1080 0.0032112
1092 0.00286979
1104 0.0137177
1116 0.0675218
1128 0.00195925
1140 0.000921347
1152 0.00418859
1164 0.103622
1176 0.00163249
1188 0.000774098
1200 0.00432668
1212 0.0348836
1224 0.00239771
1236 0.00398778
1248 0.052115
1260 0.115074
1272 0.00409695
1284 0.00129705
1296 0.000765847
1308 0.000557099
1320 0.000670431
1332 0.00533592
1344 0.0295576
1356 0.00327593
1368 0.00214326
1380 0.0451806
1392 0.00985578
1404 0.00354124
1416 0.0331313
1428 0.0792702
1440 0.00469963
1452 0.00483586
1464 0.0691052
1476 0.00326942
1488 0.00781969
1500 0.124861
1512 0.011394
1524 0.0037092
1536 0.0418247
1548 0.00555343
1560 0.00254684
1572 0.0614558
1584 0.00527236
1596 0.00144406
1608 0.000918712
1620 0.0015631
1632 0.00490203
1644 0.0965263
1656 0.00717286
1668 0.00442278
1680 0.0224859
1692 0.00520423
1704 0.0398368
1716 0.117011
1728 0.00823247
1740 0.0246108
1752 0.0127292
1764 0.000835451
1776 0.000348605
1788 0.000780829
1800 0.00827658
1812 0.0337514
1824 0.00548091
1836 0.0609561
1848 0.0307536
1860 0.00192024
1872 0.000430626
1884 0.000889103
1896 0.0133843
1908 0.0077404
1920 0.00474538
1932 0.0215775
1944 0.00440554
1956 0.0503851
1968 0.0160062
1980 0.0130722
1992 0.027741
2004 0.00651851
2016 0.0557942
2028 0.00763555
2040 0.00796954
2052 0.00551309
2064 0.0265294
2076 0.0595977
2088 0.00587157
2100 0.00211522
2112 0.00391895
2124 0.0283439
2136 0.0144158
2148 0.020459
2160 0.0122099
2172 0.0169577
2184 0.0363298
2196 0.00498942
2208 0.0142338
2220 0.00614462
2232 0.0243547
2244 0.00757791
2256 0.0183783
2268 0.00652272
2280 0.0327095
2292 0.0113852
2304 0.000909178
2316 0.000520031
2328 0.00638648
2340 0.00177362
2352 0.0100545
2364 0.00861848
2376 0.0407609
2388 0.0169186
2400 0.0156615
2412 0.00818293
2424 0.0171347
2436 0.0104641
2448 0.0129127
2460 0.0114335
2472 0.0454888
2484 0.0153373
2496 0.00295404
2508 0.00663541
2520 0.0354394
2532 0.00736913
2544 0.0088382
2556 0.00594067
2568 0.00834393
2580 0.011969
2592 0.0115933
2604 0.00132772
2616 0.00110692
2628 0.00865831
2640 0.0102827
2652 0.0348901
2664 0.00888581
2676 0.000658551
2688 0.00125662
2700 0.00228544
2712 0.00924103
2724 0.0104417
2736 0.0295937
2748 0.0112597
2760 0.00612729
2772 0.0119174
2784 0.0163044
2796 0.0107514
2808 0.00667708
2820 0.0165746
2832 0.0016657
2844 0.00198221
2856 0.00850817
2868 0.00752932
2880 0.00677092
2892 0.0153443
2904 0.0256738
2916 0.0114555
2928 0.00643372
2940 0.00937035
2952 0.00573916
2964 0.00712535
2976 0.00983066
2988 0.00493119
3000 0.000449115
3012 0.00461065
3024 0.0059455
3036 0.00714294
3048 0.00815055
3060 0.00764314
3072 0.00911936
3084 0.00808942
3096 0.010733
3108 0.00618798
3120 0.00997275
3132 0.021567
3144 0.00465109
3156 0.00368645
3168 0.0111572
3180 0.00804385
3192 0.0122379
3204 0.0206384
3216 0.00755253
3228 0.00238714
3240 6.51123e-05
3252 0.00287448
3264 0.0058414
3276 0.0139902
3288 0.00381526
3300 0.00385058
3312 0.00752438
3324 0.00389237
3336 0.0094376
3348 0.012598
3360 0.00965518
3372 0.00434093
3384 0.00858247
3396 0.0135238
3408 0.00800149
3420 0.00780676
3432 0.00393305
3444 0.0108592
3456 0.0114189
3468 0.00850013
3480 0.00923099
3487 0.0190436

File: BTO_195K_tth.xy
0.000000000000000000e+00 9.09394e-05
12 0.0102327
24 0.0112913
36 0.00306864
48 0.00324372
60 0.00342011
72 0.00353905
84 0.00381512
96 0.00366556
108 0.00352714
120 0.00333223
132 0.00322109
144 0.00306359
156 0.0028735
168 0.00262035
180 0.00245681
192 0.00227484
204 0.00211928
216 0.00197611
228 0.00186859
240 0.00183507
252 0.00183768
264 0.00183588
276 0.00192537
288 0.00219472
300 0.00205017
312 0.0018884
324 0.00275612
336 0.0674042
348 0.00179195
360 0.00416475
372 0.000991241
384 0.00152023
396 0.00100536
408 0.000960688
420 0.00137188
432 0.0012783
444 0.00200747
456 0.00448725
468 0.0655769
480 0.0265528
492 0.00341279
504 0.00167517
516 0.00188191
528 0.000417408
540 0.000148664
552 0.000564405
564 0.00145575
576 0.0472708
588 0.0055081
600 0.00120122
612 0.000624301
624 0.00194385
636 0.00169606
648 0.00749502
660 0.0134056
672 0.23821
684 0.00476201
696 0.00325901
708 0.0009038
720 0.000429497
732 0.000738544
744 0.0241834
756 0.00933537
768 0.000515481
780 0.000828253
792 0.00102341
804 0.00410628
816 0.107872
828 0.0289118
840 0.00260583
852 0.000734593
864 0.000507272
876 0.000644781
888 0.000662806
900 0.00010201
912 0.000340827
924 0.000945389
936 0.00591702
948 0.34392
960 0.00545215
972 0.00170341
984 0.00193268
996 0.00436635
1008 0.0713552
1020 0.00163623
1032 0.00136004
1044 0.00452188
1056 0.127998
1068 0.0405272
1080 0.00299
1092 0.00291262
1104 0.0143579
1116 0.0696691
1128 0.00172511
1140 0.000971457
1152 0.00412847
1164 0.102288
1176 0.00128301
1188 0.000707044
1200 0.00441361
1212 0.0347181
1224 0.00198348
1236 0.0038923
1248 0.0540312
1260 0.117994
1272 0.00393844
1284 0.000965
1296 0.000373536
1308 0.000495756
1320 0.000626851
1332 0.00541291
1344 0.0269001
1356 0.00283762
1368 0.00215725
1380 0.046062
1392 0.0102199
1404 0.00308366
1416 0.0352428
1428 0.0793127
1440 0.00423437
1452 0.00471435
1464 0.0689109
1476 0.00279037
1488 0.00761317
1500 0.121882
1512 0.0112933
1524 0.00332831
1536 0.0414599
1548 0.00549432
1560 0.00226754
1572 0.0618241
1584 0.00493751
1596 0.00117416
1608 0.00045679
1620 0.00140785
1632 0.00441271
1644 0.0953556
1656 0.00690552
1668 0.00433115
1680 0.0214213
1692 0.00471983
1704 0.0426474
1716 0.115312
1728 0.00779226
1740 0.025659
1752 0.0131281
1764 0.00104566
1776 3.9934e-05
1788 0.000656288
1800 0.00833951
1812 0.0327512
1824 0.00534158
1836 0.0627321
1848 0.0330115
1860 0.00175195
1872 0.000462171
1884 0.000991064
1896 0.0137
1908 0.00796023
1920 0.00488389
1932 0.021137
1944 0.00481404
1956 0.0510649
1968 0.016657
1980 0.0142747
1992 0.0272876
2004 0.00694789
2016 0.0563575
2028 0.00813684
2040 0.00831377
2052 0.00599153
2064 0.029087
2076 0.057314
2088 0.00618151
2100 0.002315
2112 0.00398506
2124 0.0277449
2136 0.0156138
2148 0.020709
2160 0.0119422
2172 0.0175095
2184 0.0363704
2196 0.00512969
2208 0.0138539
2220 0.00628597
2232 0.0223115
2244 0.00795532
2256 0.0181217
2268 0.00680551
2280 0.0314135
2292 0.0118865
2304 0.000361695
2316 0.000291204
2328 0.00624904
2340 0.00245114
2352 0.00951075
2364 0.00860673
2376 0.0400316
2388 0.0164286
2400 0.0145266
2412 0.00738639
2424 0.0166283
2436 0.0106702
2448 0.0123676
2460 0.0111187
2472 0.0437839
2484 0.015696
2496 0.002679
2508 0.00674623
2520 0.0343538
2532 0.00673185
2544 0.00791589
2556 0.00598665
2568 0.00709925
2580 0.0122273
2592 0.0101016
2604 0.0010316
2616 0.00122018
2628 0.00815728
2640 0.0101442
2652 0.0338652
2664 0.00857069
2676 0.00036333
2688 0.00161145
2700 0.00192276
2712 0.00906407
2724 0.0104466
2736 0.0285147
2748 0.0122204
2760 0.00596993
2772 0.0127487
2784 0.016277
2796 0.0115164
2808 0.00687431
2820 0.0158545
2832 0.00105467
2844 0.00123547
2856 0.00931821
2868 0.00779724
2880 0.00585116
2892 0.0166094
2904 0.0253252
2916 0.0119831
2928 0.00695841
2940 0.00892848
2952 0.00737836
2964 0.00744665
2976 0.00908894
2988 0.00506884
3000 0.000785533
3012 0.0046563
3024 0.00649817
3036 0.00822937
3048 0.0080732
3060 0.00743382
3072 0.0103658
3084 0.00775454
3096 0.0102517
3108 0.0072338
3120 0.00947009
3132 0.0207341
3144 0.0043991
3156 0.00161329
3168 0.00930103
3180 0.00758565
3192 0.0112482
3204 0.0192569
3216 0.00854067
3228 0.00218725
3240 0.000939064
3252 0.0031505
3264 0.00622069
3276 0.0120843
3288 0.00282243
3300 0.000915822
3312 0.00485542
3324 0.00283579
3336 0.00755859
3348 0.0117322
3360 0.0087605
3372 0.00451446
3384 0.00715538
3396 0.00845657
3408 0.00864952
3420 0.00247616
3432 0.00296377
3444 0.00966185
3456 0.00720759
3468 0.00462896
3480 0.00111739
3487 0.0228535