Folder: pub-Maffettone_2021_04/constrainednmf/example_data/BaTiO3_xrd_ramp (part 4)

File: BTO_225K_tth.xy
0.000000000000000000e+00 0.000162392
12 0.00981347
24 0.011263
36 0.00303296
48 0.00325332
60 0.00338345
72 0.00351985
84 0.00385032
96 0.00367777
108 0.00347805
120 0.00336744
132 0.00317544
144 0.00302647
156 0.0028475
168 0.00273277
180 0.00253998
192 0.0022853
204 0.00218338
216 0.00209091
228 0.00200445
240 0.00189003
252 0.00199892
264 0.0020334
276 0.0021392
288 0.00240327
300 0.00208357
312 0.00191885
324 0.00281101
336 0.0655333
348 0.00155429
360 0.00426566
372 0.000802242
384 0.000853003
396 0.000847783
408 0.000965119
420 0.0013004
432 0.00119734
444 0.00207625
456 0.00465692
468 0.0767612
480 0.0239274
492 0.00345027
504 0.00171025
516 0.00182842
528 0.000395
540 0.000283265
552 0.000630172
564 0.00163567
576 0.054241
588 0.00499106
600 0.00110479
612 0.000580257
624 0.00199034
636 0.00152187
648 0.00227576
660 0.0150933
672 0.226357
684 0.00452844
696 0.00215003
708 0.000896314
720 0.000682023
732 0.00099127
744 0.0323588
756 0.00834858
768 0.00061707
780 0.000805251
792 0.00144855
804 0.00486074
816 0.139037
828 0.0248122
840 0.00300515
852 0.000742269
864 0.00053721
876 0.000235333
888 0.000660677
900 0.000326494
912 0.000356878
924 0.00118543
936 0.00633148
948 0.338711
960 0.00510676
972 0.00141431
984 0.00145432
996 0.00484255
1008 0.0575652
1020 0.00130455
1032 0.00137643
1044 0.00475692
1056 0.165413
1068 0.0341888
1080 0.00263503
1092 0.00236273
1104 0.0185163
1116 0.0763887
1128 0.00154449
1140 0.000993912
1152 0.00420579
1164 0.0747489
1176 0.00140587
1188 0.000957633
1200 0.00545196
1212 0.0334017
1224 0.00201243
1236 0.00418198
1248 0.0721272
1260 0.101035
1272 0.00386087
1284 0.000949353
1296 0.000291874
1308 0.000157677
1320 0.000785161
1332 0.00748073
1344 0.0174538
1356 0.00249219
1368 0.00247759
1380 0.0498787
1392 0.00933806
1404 0.00309656
1416 0.049933
1428 0.0808301
1440 0.00408338
1452 0.00518118
1464 0.0633625
1476 0.00288273
1488 0.00911095
1500 0.0965892
1512 0.008749
1524 0.00314487
1536 0.038072
1548 0.00426544
1560 0.00232255
1572 0.0733717
1584 0.00361134
1596 0.000904952
1608 0.00056862
1620 0.000987076
1632 0.00566911
1644 0.0852468
1656 0.00583541
1668 0.00530342
1680 0.0184249
1692 0.00560023
1704 0.0596823
1716 0.100195
1728 0.00764096
1740 0.0291901
1752 0.0177593
1764 0.00111768
1776 0.00018115
1788 0.0006852
1800 0.0113731
1812 0.0265368
1824 0.00606575
1836 0.0649489
1848 0.0375416
1860 0.00178709
1872 0.00055613
1884 0.000845218
1896 0.0136528
1908 0.00651848
1920 0.00599124
1932 0.017967
1944 0.00482256
1956 0.0559754
1968 0.014213
1980 0.0173151
1992 0.0257175
2004 0.00756229
2016 0.056989
2028 0.00857195
2040 0.00771549
2052 0.00692206
2064 0.037944
2076 0.0489793
2088 0.00466883
2100 0.00240856
2112 0.00539373
2124 0.0218271
2136 0.0204284
2148 0.0206009
2160 0.0129627
2172 0.0187687
2184 0.0320278
2196 0.00542323
2208 0.0119104
2220 0.00839896
2232 0.0142956
2244 0.00766621
2256 0.0156847
2268 0.0077758
2280 0.0249605
2292 0.0108514
2304 0.000462903
2316 0.000493384
2328 0.00836826
2340 0.00222719
2352 0.00889104
2364 0.00999084
2376 0.0404639
2388 0.01606
2400 0.0127154
2412 0.00866405
2424 0.0164265
2436 0.010794
2448 0.0103651
2460 0.0138853
2472 0.0371437
2484 0.0193085
2496 0.00224725
2508 0.00896283
2520 0.027612
2532 0.00656651
2544 0.00628686
2556 0.0067697
2568 0.00540266
2580 0.0122956
2592 0.00805201
2604 0.000727265
2616 0.00192087
2628 0.00764789
2640 0.01316
2652 0.02663
2664 0.00814532
2676 0.000373116
2688 0.00160043
2700 0.00262748
2712 0.00793766
2724 0.0117335
2736 0.0246257
2748 0.0131619
2760 0.00427285
2772 0.0136776
2784 0.0123212
2796 0.00852115
2808 0.00715339
2820 0.0156902
2832 0.00170057
2844 0.00152823
2856 0.00855235
2868 0.00814811
2880 0.00528542
2892 0.0190745
2904 0.0187759
2916 0.00998998
2928 0.00715515
2940 0.00942241
2952 0.00655811
2964 0.00579126
2976 0.0092543
2988 0.00415334
3000 0.000596766
3012 0.0046241
3024 0.00628852
3036 0.00702937
3048 0.00947341
3060 0.00671611
3072 0.00968897
3084 0.00850038
3096 0.00806917
3108 0.00588043
3120 0.0119341
3132 0.0165932
3144 0.00672192
3156 0.00359181
3168 0.00946927
3180 0.00656368
3192 0.0129514
3204 0.0149031
3216 0.00817488
3228 0.00256377
3240 0.00250799
3252 0.00283989
3264 0.00807708
3276 0.00789596
3288 0.0058665
3300 0.00353428
3312 0.00409847
3324 0.0030752
3336 0.00774922
3348 0.00897384
3360 0.00687249
3372 0.00473574
3384 0.00731251
3396 0.00434732
3408 0.00416098
3420 0.00177641
3432 0.00308802
3444 0.00706735
3456 0.00863151
3468 0.00880866
3480 0.0100521
3487 0.0121625

File: BTO_230K_tth.xy
0.000000000000000000e+00 0.000500963
12 0.0102065
24 0.0116523
36 0.00343579
48 0.00366427
60 0.00374261
72 0.00389088
84 0.00420328
96 0.00407491
108 0.0038425
120 0.00374707
132 0.00355692
144 0.0034023
156 0.00314462
168 0.00302442
180 0.00285933
192 0.00269858
204 0.00246739
216 0.00235277
228 0.0023164
240 0.00226726
252 0.00226704
264 0.00229433
276 0.00240496
288 0.00279363
300 0.00244905
312 0.00221951
324 0.00310518
336 0.0658387
348 0.00185019
360 0.00451346
372 0.00107564
384 0.00109339
396 0.00117639
408 0.0012778
420 0.00153581
432 0.00159987
444 0.00241879
456 0.00488483
468 0.0770527
480 0.0241509
492 0.00365337
504 0.00208575
516 0.00223048
528 0.000609353
540 0.000675475
552 0.000829868
564 0.00193362
576 0.05466
588 0.00526196
600 0.00131558
612 0.000926142
624 0.00231334
636 0.00193804
648 0.00271405
660 0.015537
672 0.227617
684 0.00490037
696 0.00249376
708 0.00114369
720 0.00106205
732 0.00151394
744 0.0329748
756 0.00860279
768 0.000979278
780 0.00111436
792 0.00175935
804 0.00530332
816 0.140104
828 0.0250707
840 0.00299046
852 0.00135093
864 0.00102897
876 0.000731611
888 0.000812625
900 0.000684609
912 0.000681459
924 0.00145642
936 0.00657642
948 0.338759
960 0.00540239
972 0.00178596
984 0.00179628
996 0.00550413
1008 0.0575946
1020 0.00179144
1032 0.0018667
1044 0.00527237
1056 0.165738
1068 0.0339649
1080 0.00301511
1092 0.00275877
1104 0.0191021
1116 0.0769901
1128 0.00228066
1140 0.00146467
1152 0.00435938
1164 0.0738073
1176 0.00164139
1188 0.00134899
1200 0.00594966
1212 0.0333716
1224 0.00270118
1236 0.00465435
1248 0.0730098
1260 0.0994518
1272 0.00412278
1284 0.00125498
1296 0.000519022
1308 0.000946803
1320 0.00109675
1332 0.00793365
1344 0.0177325
1356 0.00267838
1368 0.00269686
1380 0.0501842
1392 0.00934467
1404 0.00340662
1416 0.0504237
1428 0.0818253
1440 0.00389205
1452 0.00523786
1464 0.0634281
1476 0.00293317
1488 0.00947846
1500 0.0956744
1512 0.0090038
1524 0.00378822
1536 0.0374252
1548 0.00424284
1560 0.00232042
1572 0.0738079
1584 0.0040264
1596 0.00104707
1608 0.000546758
1620 0.00119762
1632 0.00570591
1644 0.0847641
1656 0.00561595
1668 0.00565806
1680 0.0184728
1692 0.00541572
1704 0.0601053
1716 0.100017
1728 0.00749589
1740 0.0290244
1752 0.0180956
1764 0.00138903
1776 0.000742925
1788 0.00106137
1800 0.0120229
1812 0.027092
1824 0.00665842
1836 0.0648
1848 0.0369686
1860 0.00176422
1872 0.000841484
1884 0.00121606
1896 0.0140397
1908 0.00645072
1920 0.0062655
1932 0.0178277
1944 0.00494936
1956 0.0563457
1968 0.0145838
1980 0.0175758
1992 0.0263323
2004 0.00805741
2016 0.0568733
2028 0.00889302
2040 0.00808621
2052 0.00761013
2064 0.0383785
2076 0.0495411
2088 0.00491722
2100 0.00229057
2112 0.00503384
2124 0.022008
2136 0.0205274
2148 0.0208713
2160 0.013103
2172 0.0191287
2184 0.0318715
2196 0.00547753
2208 0.0121169
2220 0.00906654
2232 0.0145062
2244 0.00769187
2256 0.0158445
2268 0.00810961
2280 0.024669
2292 0.0103057
2304 0.000550447
2316 0.000603983
2328 0.00872408
2340 0.00221397
2352 0.00931562
2364 0.00991743
2376 0.0404535
2388 0.0165899
2400 0.0128104
2412 0.00893885
2424 0.0165524
2436 0.0106591
2448 0.0109033
2460 0.0142686
2472 0.0372133
2484 0.0190189
2496 0.00296187
2508 0.00926217
2520 0.0277184
2532 0.00622078
2544 0.00641408
2556 0.00743676
2568 0.00568882
2580 0.012291
2592 0.00824205
2604 0.00133051
2616 0.00224824
2628 0.00828528
2640 0.0135432
2652 0.0273835
2664 0.00804135
2676 0.000707283
2688 0.00200259
2700 0.00266975
2712 0.00829197
2724 0.0133004
2736 0.0249261
2748 0.0134539
2760 0.00535101
2772 0.0141266
2784 0.0130717
2796 0.00814744
2808 0.00799525
2820 0.0164366
2832 0.00163036
2844 0.0021035
2856 0.00841515
2868 0.00846847
2880 0.00631373
2892 0.0197588
2904 0.0189765
2916 0.0104678
2928 0.00708492
2940 0.00994371
2952 0.00631788
2964 0.00666164
2976 0.00905409
2988 0.00413051
3000 0.000329282
3012 0.00527941
3024 0.00702199
3036 0.00707233
3048 0.00801432
3060 0.0060421
3072 0.00935773
3084 0.00884936
3096 0.00703857
3108 0.00594644
3120 0.0112972
3132 0.0158225
3144 0.00581131
3156 0.00214886
3168 0.0081099
3180 0.00681057
3192 0.0118878
3204 0.014069
3216 0.0061014
3228 0.00182222
3240 0.0020584
3252 0.00221532
3264 0.00737237
3276 0.00893354
3288 0.00491331
3300 0.00393774
3312 0.0048448
3324 0.00602778
3336 0.00921889
3348 0.00825101
3360 0.00598198
3372 0.00596695
3384 0.0079846
3396 0.00645095
3408 0.00634807
3420 0.00526129
3432 0.00159337
3444 0.00599094
3456 0.00880811
3468 0.00338402
3480 0.00476457
3487 0.00688902

File: BTO_235K_tth.xy
0.000000000000000000e+00 0.000978223
12 0.010446
24 0.0109684
36 0.00251773
48 0.002641
60 0.00269835
72 0.00283432
84 0.00323754
96 0.00320921
108 0.00323073
120 0.0032489
132 0.0032775
144 0.00330907
156 0.00325928
168 0.00322767
180 0.00323661
192 0.00313407
204 0.00302955
216 0.00297174
228 0.00297132
240 0.00302936
252 0.00303965
264 0.00304652
276 0.00325755
288 0.00342525
300 0.00318513
312 0.00292555
324 0.00373684
336 0.0667986
348 0.00230403
360 0.00494663
372 0.00149086
384 0.00139853
396 0.00143276
408 0.00148379
420 0.0017151
432 0.00165334
444 0.00247324
456 0.00484268
468 0.0778887
480 0.0243449
492 0.00354934
504 0.00184431
516 0.00204952
528 0.00057047
540 0.000588519
552 0.000832854
564 0.00180653
576 0.0546149
588 0.00552149
600 0.00160468
612 0.0010375
624 0.00241451
636 0.00199077
648 0.0027336
660 0.0154087
672 0.22682
684 0.00500906
696 0.002689
708 0.00128838
720 0.00115685
732 0.00168768
744 0.0331414
756 0.00896789
768 0.00133075
780 0.00134501
792 0.00201525
804 0.00539118
816 0.139581
828 0.0257943
840 0.00347819
852 0.00155456
864 0.00112718
876 0.000787124
888 0.00106407
900 0.000931159
912 0.00085455
924 0.00162526
936 0.0069644
948 0.339712
960 0.00550511
972 0.00182611
984 0.00180227
996 0.00496436
1008 0.0583174
1020 0.00172186
1032 0.00168734
1044 0.00509991
1056 0.165955
1068 0.0351212
1080 0.00289147
1092 0.00242347
1104 0.0187099
1116 0.0774942
1128 0.00180557
1140 0.000855225
1152 0.00404364
1164 0.0757741
1176 0.00153539
1188 0.000906042
1200 0.00544287
1212 0.0334722
1224 0.00245251
1236 0.00413619
1248 0.0725491
1260 0.103092
1272 0.00393194
1284 0.00110033
1296 0.000384879
1308 0.0005415
1320 0.00114435
1332 0.00788229
1344 0.0175925
1356 0.0027223
1368 0.00276887
1380 0.0507525
1392 0.0100554
1404 0.00375194
1416 0.0508012
1428 0.0822876
1440 0.0046809
1452 0.00617785
1464 0.0646683
1476 0.00375946
1488 0.00976756
1500 0.0977828
1512 0.010383
1524 0.00435382
1536 0.0391632
1548 0.00538804
1560 0.00355085
1572 0.0744482
1584 0.00493888
1596 0.00187286
1608 0.00182146
1620 0.00211639
1632 0.00684791
1644 0.0862045
1656 0.0069564
1668 0.00639276
1680 0.0193791
1692 0.00597186
1704 0.0610981
1716 0.101542
1728 0.00839036
1740 0.0299763
1752 0.0187523
1764 0.00190737
1776 0.00114903
1788 0.00170704
1800 0.0119834
1812 0.0274003
1824 0.00657921
1836 0.0654373
1848 0.0387375
1860 0.00206883
1872 0.000464628
1884 0.00152557
1896 0.0135814
1908 0.00635351
1920 0.00590375
1932 0.0175637
1944 0.00439845
1956 0.0558343
1968 0.0144296
1980 0.0166399
1992 0.0253056
2004 0.00728695
2016 0.0562472
2028 0.00818461
2040 0.00731206
2052 0.00662118
2064 0.0376183
2076 0.0487505
2088 0.0043403
2100 0.00153323
2112 0.00462786
2124 0.0215006
2136 0.0205413
2148 0.0202449
2160 0.0120481
2172 0.018017
2184 0.0318546
2196 0.00507614
2208 0.0113433
2220 0.00817076
2232 0.013748
2244 0.00739434
2256 0.0159835
2268 0.0083739
2280 0.0253619
2292 0.0109891
2304 0.000728388
2316 0.000590091
2328 0.00890678
2340 0.00293328
2352 0.00954257
2364 0.0106671
2376 0.0408252
2388 0.0168707
2400 0.0135469
2412 0.00988097
2424 0.0175183
2436 0.0121176
2448 0.0119167
2460 0.0157959
2472 0.0382591
2484 0.0203453
2496 0.00392433
2508 0.0105492
2520 0.0290683
2532 0.00795049
2544 0.00771779
2556 0.00842772
2568 0.00673385
2580 0.0138021
2592 0.00943466
2604 0.00177332
2616 0.00277467
2628 0.00907059
2640 0.0148589
2652 0.0282215
2664 0.00915118
2676 0.00152209
2688 0.00291856
2700 0.00323013
2712 0.00872362
2724 0.0127131
2736 0.0245506
2748 0.0135071
2760 0.00461367
2772 0.0143582
2784 0.0125456
2796 0.00862233
2808 0.00751968
2820 0.0158232
2832 0.000511208
2844 0.00149567
2856 0.00801717
2868 0.00737803
2880 0.00567576
2892 0.0181802
2904 0.0187821
2916 0.0112197
2928 0.00730592
2940 0.00906332
2952 0.00701289
2964 0.00640469
2976 0.00855666
2988 0.0047742
3000 0.00155554
3012 0.00620179
3024 0.00721185
3036 0.00797411
3048 0.00936083
3060 0.00735789
3072 0.010282
3084 0.010032
3096 0.00939454
3108 0.00714169
3120 0.0134074
3132 0.0188798
3144 0.00955445
3156 0.00570739
3168 0.0107154
3180 0.00862732
3192 0.0146711
3204 0.017454
3216 0.00847318
3228 0.00298711
3240 0.00357614
3252 0.00558614
3264 0.00980222
3276 0.00942248
3288 0.00460472
3300 0.00390198
3312 0.00419744
3324 0.00375131
3336 0.00675279
3348 0.00878612
3360 0.00744523
3372 0.00764269
3384 0.0074678
3396 0.00814923
3408 0.00657419
3420 0.00695268
3432 0.00731844
3444 0.0134213
3456 0.0171826
3468 0.0224225
3480 0.0245226
3487 0.000400107

File: BTO_240K_tth.xy
0.000000000000000000e+00 5.42018e-05
12 0.00993058
24 0.0107224
36 0.00242561
48 0.00258085
60 0.00276226
72 0.00287748
84 0.00324016
96 0.00311585
108 0.00311602
120 0.00301597
132 0.00298114
144 0.00286348
156 0.00276705
168 0.00266119
180 0.00253433
192 0.00236364
204 0.00224638
216 0.00219415
228 0.00217922
240 0.00218253
252 0.00217671
264 0.0022905
276 0.00236681
288 0.00267332
300 0.00239812
312 0.00210123
324 0.00302998
336 0.0659942
348 0.00180041
360 0.00430587
372 0.000991613
384 0.000936864
396 0.00094887
408 0.00101367
420 0.00122665
432 0.00135407
444 0.00219403
456 0.00461433
468 0.077605
480 0.0239398
492 0.00325135
504 0.00172664
516 0.00171299
528 0.000248455
540 0.000212437
552 0.000471803
564 0.0015743
576 0.0546924
588 0.00515813
600 0.00125427
612 0.000716119
624 0.0020985
636 0.00169809
648 0.00219614
660 0.0151256
672 0.228498
684 0.0044477
696 0.00191085
708 0.000925134
720 0.000846628
732 0.00116358
744 0.0327516
756 0.0082606
768 0.000612402
780 0.000805624
792 0.00181883
804 0.00466753
816 0.140657
828 0.0248803
840 0.00272304
852 0.000867784
864 0.000625769
876 0.000110105
888 0.000589759
900 9.99753e-05
912 0.000176843
924 0.000839446
936 0.00647764
948 0.339268
960 0.00499743
972 0.00129739
984 0.00132381
996 0.00465163
1008 0.0573177
1020 0.00117693
1032 0.00123937
1044 0.00474025
1056 0.165803
1068 0.0339231
1080 0.00255646
1092 0.00184378
1104 0.0182583
1116 0.0769207
1128 0.00156522
1140 0.000724633
1152 0.00400225
1164 0.0742043
1176 0.00126286
1188 0.000632812
1200 0.00543992
1212 0.033415
1224 0.00215711
1236 0.0041065
1248 0.0730755
1260 0.100312
1272 0.00359862
1284 0.000715705
1296 0.000140492
1308 0.00016663
1320 0.000801623
1332 0.00777899
1344 0.017677
1356 0.00243312
1368 0.00230606
1380 0.0502574
1392 0.00939456
1404 0.00347246
1416 0.0507433
1428 0.0821441
1440 0.00404261
1452 0.00563987
1464 0.0634683
1476 0.00315714
1488 0.00953093
1500 0.096047
1512 0.00930138
1524 0.00387094
1536 0.0383461
1548 0.00455967
1560 0.0025332
1572 0.0744287
1584 0.00432561
1596 0.00116854
1608 0.000838454
1620 0.00111045
1632 0.00576244
1644 0.0849976
1656 0.00598506
1668 0.00581827
1680 0.0183386
1692 0.00559151
1704 0.0600657
1716 0.100111
1728 0.00729808
1740 0.0288227
1752 0.0181903
1764 0.00106072
1776 0.00016306
1788 0.00108623
1800 0.011068
1812 0.0263247
1824 0.00634584
1836 0.0644058
1848 0.0370162
1860 0.00140791
1872 0.000332439
1884 0.000656393
1896 0.0137355
1908 0.00597529
1920 0.00598248
1932 0.0171347
1944 0.00448085
1956 0.0556035
1968 0.0139696
1980 0.0167541
1992 0.0254342
2004 0.00736966
2016 0.0566719
2028 0.00806056
2040 0.00709151
2052 0.0068718
2064 0.0373476
2076 0.0488701
2088 0.00405538
2100 0.00140564
2112 0.00460608
2124 0.0213184
2136 0.0203454
2148 0.0203723
2160 0.0124062
2172 0.0184929
2184 0.0311562
2196 0.0053987
2208 0.011435
2220 0.00843388
2232 0.0138805
2244 0.00713756
2256 0.0155993
2268 0.00760271
2280 0.024255
2292 0.0101671
2304 0.000723132
2316 0.000439991
2328 0.00832079
2340 0.00239576
2352 0.00907173
2364 0.00983664
2376 0.0404937
2388 0.0161924
2400 0.01272
2412 0.00902691
2424 0.0167102
2436 0.0111164
2448 0.0109906
2460 0.0145717
2472 0.0375913
2484 0.0193341
2496 0.00313495
2508 0.00938235
2520 0.0276819
2532 0.00690055
2544 0.00663594
2556 0.00752761
2568 0.00549534
2580 0.0128587
2592 0.00918577
2604 0.00159037
2616 0.00232715
2628 0.008698
2640 0.0137783
2652 0.0270417
2664 0.00809881
2676 0.000945376
2688 0.00237953
2700 0.00264194
2712 0.00825653
2724 0.0123666
2736 0.0246547
2748 0.0137388
2760 0.0047856
2772 0.0134773
2784 0.0130316
2796 0.00751073
2808 0.0079079
2820 0.0155762
2832 0.000921177
2844 0.00110249
2856 0.00815651
2868 0.00737493
2880 0.00603456
2892 0.0189199
2904 0.0181012
2916 0.00959816
2928 0.00724299
2940 0.00838506
2952 0.00625534
2964 0.00590386
2976 0.00935507
2988 0.00385848
3000 0.000227441
3012 0.00446406
3024 0.00688397
3036 0.00743891
3048 0.00926456
3060 0.00655818
3072 0.0107319
3084 0.00903928
3096 0.00783791
3108 0.00614976
3120 0.0123206
3132 0.0167672
3144 0.00538181
3156 0.0037641
3168 0.0104306
3180 0.00745957
3192 0.0126882
3204 0.0150932
3216 0.00789242
3228 0.00214381
3240 0.00198199
3252 0.0021675
3264 0.0081748
3276 0.00843483
3288 0.00352953
3300 0.00289685
3312 0.00294343
3324 0.00209699
3336 0.00837714
3348 0.00927692
3360 0.0065613
3372 0.00614605
3384 0.00516219
3396 0.00837361
3408 0.00680232
3420 0.00475618
3432 0.00721586
3444 0.0118734
3456 0.0125609
3468 0.0128454
3480 0.0220009
3487 4.01326e-05

File: BTO_245K_tth.xy
0.000000000000000000e+00 8.87406e-05
12 0.0101647
24 0.011025
36 0.00281657
48 0.00296741
60 0.00310851
72 0.00327378
84 0.00360188
96 0.00346844
108 0.00338799
120 0.00324721
132 0.00314392
144 0.00296304
156 0.00283782
168 0.00267257
180 0.00247875
192 0.00234015
204 0.00219012
216 0.00212379
228 0.00202629
240 0.00196354
252 0.00200774
264 0.00206152
276 0.00207078
288 0.00243741
300 0.00209194
312 0.00193057
324 0.00290145
336 0.0653921
348 0.00159471
360 0.00418999
372 0.000783953
384 0.000775411
396 0.000692116
408 0.00087908
420 0.00127005
432 0.00128716
444 0.00205579
456 0.00455153
468 0.0773804
480 0.0237525
492 0.00342814
504 0.00166858
516 0.00194221
528 0.000290478
540 0.000230851
552 0.000367751
564 0.00156815
576 0.0551081
588 0.00509047
600 0.00103269
612 0.000708792
624 0.00186341
636 0.00165234
648 0.00224746
660 0.0152683
672 0.230802
684 0.00424717
696 0.00194578
708 0.000751902
720 0.000541689
732 0.00111974
744 0.0329948
756 0.00809934
768 0.000726571
780 0.000526956
792 0.00150007
804 0.00465219
816 0.141727
828 0.0244151
840 0.00277336
852 0.000948974
864 0.000617028
876 0.000122705
888 0.000532858
900 0.00024107
912 0.000405235
924 0.00117525
936 0.00643684
948 0.33895
960 0.00497507
972 0.00127939
984 0.00138764
996 0.00497771
1008 0.0565681
1020 0.00129788
1032 0.00136008
1044 0.00510594
1056 0.165573
1068 0.0327184
1080 0.00302448
1092 0.0023
1104 0.0189409
1116 0.0767191
1128 0.00165437
1140 0.000891067
1152 0.00397339
1164 0.0722108
1176 0.0014088
1188 0.000808883
1200 0.00558541
1212 0.0330302
1224 0.00208479
1236 0.00451245
1248 0.0731312
1260 0.097001
1272 0.00361888
1284 0.000869507
1296 9.60715e-05
1308 0.00023039
1320 0.000800329
1332 0.00796385
1344 0.0174214
1356 0.00211973
1368 0.00225355
1380 0.0497942
1392 0.00878226
1404 0.00310447
1416 0.0504112
1428 0.082572
1440 0.00365747
1452 0.00503787
1464 0.0626224
1476 0.00272509
1488 0.00923766
1500 0.0944081
1512 0.00877545
1524 0.00360688
1536 0.0373747
1548 0.00391569
1560 0.00219537
1572 0.0750209
1584 0.00382384
1596 0.000986033
1608 0.000614724
1620 0.00100606
1632 0.00547867
1644 0.0845332
1656 0.00585247
1668 0.00512445
1680 0.018389
1692 0.00481045
1704 0.0600423
1716 0.0985311
1728 0.00746947
1740 0.028483
1752 0.0179142
1764 0.000669105
1776 9.03025e-05
1788 0.000783364
1800 0.0109942
1812 0.0260707
1824 0.00582847
1836 0.0635236
1848 0.0356536
1860 0.00181771
1872 0.000464437
1884 0.00119698
1896 0.0138103
1908 0.00582431
1920 0.00588504
1932 0.0175414
1944 0.0043633
1956 0.056094
1968 0.0134205
1980 0.0171934
1992 0.0257856
2004 0.00777057
2016 0.0569627
2028 0.00821222
2040 0.00734004
2052 0.00729027
2064 0.0378363
2076 0.0490344
2088 0.00458313
2100 0.0018921
2112 0.00520361
2124 0.0210452
2136 0.0201667
2148 0.0201617
2160 0.0126018
2172 0.0188233
2184 0.0309168
2196 0.00539359
2208 0.0112884
2220 0.00845896
2232 0.0141507
2244 0.00727797
2256 0.0156439
2268 0.00788764
2280 0.0242575
2292 0.00966302
2304 0.000537171
2316 0.000360213
2328 0.00873306
2340 0.00191312
2352 0.0088749
2364 0.00971562
2376 0.040253
2388 0.0159298
2400 0.0125782
2412 0.00902388
2424 0.0162747
2436 0.0106557
2448 0.0107494
2460 0.0139869
2472 0.0363364
2484 0.0190155
2496 0.00253498
2508 0.00923984
2520 0.0275594
2532 0.00636716
2544 0.00663791
2556 0.00674795
2568 0.00523878
2580 0.0123458
2592 0.00866829
2604 0.0006028
2616 0.00160468
2628 0.00836841
2640 0.0137441
2652 0.0266183
2664 0.00779162
2676 0.000875874
2688 0.00169945
2700 0.0025865
2712 0.00823604
2724 0.0126364
2736 0.0240729
2748 0.0124244
2760 0.00496684
2772 0.0135792
2784 0.0125141
2796 0.00849648
2808 0.0073942
2820 0.0154788
2832 0.00170559
2844 0.00178841
2856 0.00794428
2868 0.00826795
2880 0.00545764
2892 0.0188074
2904 0.0185862
2916 0.0100219
2928 0.00726864
2940 0.00899586
2952 0.00587178
2964 0.00526054
2976 0.00878542
2988 0.00387759
3000 0.00157794
3012 0.00438948
3024 0.00651065
3036 0.00707024
3048 0.00811716
3060 0.00716448
3072 0.00984801
3084 0.00971619
3096 0.00708847
3108 0.00612205
3120 0.0110078
3132 0.0159674
3144 0.00548453
3156 0.00281365
3168 0.00977023
3180 0.00699071
3192 0.0121177
3204 0.0145936
3216 0.00863511
3228 0.000442858
3240 0.00157595
3252 0.00224638
3264 0.00696203
3276 0.00731666
3288 0.00248575
3300 0.00165053
3312 0.00205436
3324 0.00338597
3336 0.00639174
3348 0.00915683
3360 0.00682101
3372 0.00380057
3384 0.00451163
3396 0.00522982
3408 0.0058236
3420 0.000867367
3432 0.000175785
3444 0.00788941
3456 0.0098174
3468 0.00578475
3480 0.0113284
3487 0.00188496