Folder: pub-Maffettone_2021_04/constrainednmf/example_data/BaTiO3_xrd_ramp (part 9)

File: BTO_355K_tth.xy
0.000000000000000000e+00 0.000808919
12 0.0127198
24 0.0133739
36 0.00300257
48 0.00316753
60 0.00316485
72 0.00332653
84 0.00376383
96 0.00361573
108 0.00362682
120 0.00358672
132 0.00359357
144 0.00352689
156 0.00345875
168 0.00338263
180 0.00331957
192 0.00317353
204 0.00316266
216 0.00307881
228 0.00313112
240 0.00314926
252 0.00310208
264 0.00327518
276 0.00335254
288 0.00361889
300 0.00319237
312 0.00298902
324 0.00397965
336 0.0672924
348 0.00234841
360 0.00503278
372 0.00147454
384 0.00144251
396 0.0014417
408 0.00159182
420 0.00159103
432 0.00180676
444 0.00266839
456 0.00525531
468 0.0879903
480 0.023614
492 0.00387388
504 0.00237861
516 0.00197034
528 0.000774035
540 0.000712625
552 0.000871627
564 0.00209035
576 0.0669646
588 0.00512471
600 0.00137685
612 0.00119948
624 0.00241933
636 0.00212881
648 0.00293381
660 0.0203989
672 0.330788
684 0.00494161
696 0.00208352
708 0.00138927
720 0.0012805
732 0.0019755
744 0.0474052
756 0.00703077
768 0.00168577
780 0.00163066
792 0.00248054
804 0.00620448
816 0.191598
828 0.0212734
840 0.00352659
852 0.00156019
864 0.00118087
876 0.000923104
888 0.000820768
900 0.000824206
912 0.000932117
924 0.00165728
936 0.00784705
948 0.276907
960 0.0049339
972 0.00190725
984 0.00149061
996 0.00728765
1008 0.053885
1020 0.00152254
1032 0.00182414
1044 0.00619685
1056 0.115586
1068 0.0195993
1080 0.00301918
1092 0.00259899
1104 0.0336773
1116 0.0558474
1128 0.00160031
1140 0.00107665
1152 0.00489697
1164 0.0402894
1176 0.00149486
1188 0.0013212
1200 0.00646469
1212 0.03038
1224 0.00259587
1236 0.00534567
1248 0.0954445
1260 0.0614471
1272 0.00436377
1284 0.00128281
1296 0.000706342
1308 0.000755976
1320 0.00108682
1332 0.0190016
1344 0.0489529
1356 0.00240567
1368 0.00318073
1380 0.039456
1392 0.00556482
1404 0.00453964
1416 0.0634572
1428 0.0798155
1440 0.00444366
1452 0.00619422
1464 0.0433897
1476 0.00374747
1488 0.013646
1500 0.0947353
1512 0.00764006
1524 0.00525687
1536 0.0264854
1548 0.0039668
1560 0.00358955
1572 0.105457
1584 0.00402014
1596 0.00210048
1608 0.0022463
1620 0.00228188
1632 0.00889963
1644 0.0941097
1656 0.00559076
1668 0.00742923
1680 0.0171542
1692 0.00725775
1704 0.0600605
1716 0.115081
1728 0.00808337
1740 0.0153564
1752 0.00980917
1764 0.00167977
1776 0.000996762
1788 0.00167145
1800 0.0135814
1812 0.026711
1824 0.00880507
1836 0.0271856
1848 0.0132611
1860 0.00188282
1872 0.000992578
1884 0.00147081
1896 0.0289874
1908 0.00556787
1920 0.00693439
1932 0.0184509
1944 0.00520866
1956 0.0549384
1968 0.00840693
1980 0.0209649
1992 0.0253962
2004 0.00936013
2016 0.0423759
2028 0.00598659
2040 0.00355081
2052 0.00708533
2064 0.0362505
2076 0.0589479
2088 0.00326665
2100 0.00159512
2112 0.011131
2124 0.0112244
2136 0.00864697
2148 0.0158771
2160 0.00923502
2172 0.0291493
2184 0.0241223
2196 0.0059887
2208 0.00971927
2220 0.0127313
2232 0.0255303
2244 0.00580916
2256 0.0135572
2268 0.0118089
2280 0.0196548
2292 0.00414746
2304 0.000910616
2316 0.00137655
2328 0.0128745
2340 0.00326657
2352 0.00586451
2364 0.0112806
2376 0.0412943
2388 0.0146793
2400 0.0117638
2412 0.00861894
2424 0.0141312
2436 0.00918496
2448 0.0100774
2460 0.0179248
2472 0.026984
2484 0.00776146
2496 0.00455915
2508 0.0130625
2520 0.0288541
2532 0.00529139
2544 0.00760934
2556 0.00447196
2568 0.0115502
2580 0.00928409
2592 0.0109593
2604 0.0021337
2616 0.00273312
2628 0.00788109
2640 0.0145141
2652 0.0219695
2664 0.00365568
2676 0.00149475
2688 0.00164598
2700 0.00540151
2712 0.00747454
2724 0.0136409
2736 0.0226243
2748 0.00666448
2760 0.00875162
2772 0.00956292
2784 0.0147948
2796 0.00427601
2808 0.00553548
2820 0.010696
2832 0.000139261
2844 0.00340452
2856 0.00476728
2868 0.00694239
2880 0.00658886
2892 0.0112927
2904 0.0232983
2916 0.0079912
2928 0.00526456
2940 0.005945
2952 0.00452404
2964 0.0068641
2976 0.00779367
2988 0.00301881
3000 0.00268747
3012 0.00326067
3024 0.00679831
3036 0.00778927
3048 0.00393458
3060 0.0111384
3072 0.00773685
3084 0.0060095
3096 0.0125465
3108 0.00648428
3120 0.0115149
3132 0.0122299
3144 0.00399352
3156 0.00479846
3168 0.00962285
3180 0.00776822
3192 0.0110387
3204 0.0166137
3216 0.00455282
3228 0.00408964
3240 0.00257007
3252 0.00465493
3264 0.00546028
3276 0.0089086
3288 0.00179518
3300 0.00295795
3312 0.00432874
3324 0.00611157
3336 0.00618104
3348 0.0100742
3360 0.00522229
3372 0.00119669
3384 0.00757143
3396 0.00400691
3408 0.00409671
3420 0.00445184
3432 0.00499872
3444 0.00848822
3456 0.0139187
3468 0.00907391
3480 0.0130913
3487 0.0167669

File: BTO_360K_tth.xy
0.000000000000000000e+00 3.53939e-05
12 0.0121878
24 0.0130249
36 0.00281405
48 0.00292224
60 0.00302039
72 0.00314111
84 0.00354834
96 0.00337759
108 0.00330303
120 0.00320541
132 0.00310016
144 0.00304302
156 0.00287391
168 0.00271594
180 0.00259743
192 0.00245938
204 0.00223885
216 0.00220545
228 0.00226004
240 0.00222856
252 0.00227039
264 0.00236842
276 0.00242228
288 0.00281176
300 0.00234739
312 0.0021642
324 0.00311246
336 0.0659659
348 0.00162935
360 0.00439472
372 0.000807986
384 0.000655542
396 0.000755416
408 0.000823479
420 0.00110747
432 0.00130732
444 0.00210957
456 0.00478518
468 0.08703
480 0.0229494
492 0.00330498
504 0.00162592
516 0.0016603
528 0.000254258
540 0.00016077
552 0.000378022
564 0.00150813
576 0.0667701
588 0.00470871
600 0.0010004
612 0.000474844
624 0.00195487
636 0.00153771
648 0.0023666
660 0.0200263
672 0.326229
684 0.00428707
696 0.00174926
708 0.000652507
720 0.000671819
732 0.00138799
744 0.0465087
756 0.0065577
768 0.000733279
780 0.0011263
792 0.00194838
804 0.0054081
816 0.190441
828 0.0202816
840 0.00307474
852 0.00132176
864 0.000613101
876 0.000138998
888 0.000429009
900 0.000109378
912 0.000482083
924 0.00125385
936 0.00737845
948 0.276328
960 0.00469161
972 0.00161145
984 0.00117606
996 0.00658813
1008 0.052873
1020 0.00126994
1032 0.00136868
1044 0.00606581
1056 0.115428
1068 0.0190366
1080 0.00266876
1092 0.00214512
1104 0.033566
1116 0.0542193
1128 0.00156465
1140 0.00104238
1152 0.00483438
1164 0.0394743
1176 0.00125066
1188 0.000937178
1200 0.00632384
1212 0.0296081
1224 0.00245016
1236 0.00496161
1248 0.094742
1260 0.0597749
1272 0.00368522
1284 0.00124845
1296 0.000873557
1308 0.000440198
1320 0.00124759
1332 0.018348
1344 0.0489067
1356 0.00195558
1368 0.00284056
1380 0.039349
1392 0.00467056
1404 0.00399003
1416 0.0625079
1428 0.0775992
1440 0.00400733
1452 0.00536952
1464 0.0422206
1476 0.00334322
1488 0.0128651
1500 0.095034
1512 0.00669104
1524 0.00428442
1536 0.0258933
1548 0.00322971
1560 0.00261136
1572 0.104711
1584 0.00345468
1596 0.00121255
1608 0.000636145
1620 0.00136396
1632 0.00759353
1644 0.0932892
1656 0.00503965
1668 0.00619057
1680 0.0164986
1692 0.00601633
1704 0.0591354
1716 0.11234
1728 0.00744834
1740 0.0147728
1752 0.00795241
1764 0.000562104
1776 4.00024e-05
1788 0.000809457
1800 0.0128124
1812 0.0248883
1824 0.00805989
1836 0.0266229
1848 0.0119505
1860 0.00105649
1872 2.24432e-05
1884 0.00109618
1896 0.0282814
1908 0.00460012
1920 0.00613268
1932 0.0178151
1944 0.00467421
1956 0.0549846
1968 0.00757158
1980 0.0202837
1992 0.0240945
2004 0.00880867
2016 0.0413955
2028 0.00501036
2040 0.00326032
2052 0.00633044
2064 0.0356929
2076 0.0570025
2088 0.00298894
2100 0.00112962
2112 0.0103957
2124 0.0109252
2136 0.00775485
2148 0.0157642
2160 0.00825746
2172 0.0287374
2184 0.023223
2196 0.00538232
2208 0.00870442
2220 0.0127357
2232 0.0254282
2244 0.00535404
2256 0.0135214
2268 0.0112556
2280 0.019969
2292 0.0033628
2304 0.000346488
2316 0.000741628
2328 0.0123038
2340 0.00221798
2352 0.00571828
2364 0.0109729
2376 0.0410544
2388 0.0135389
2400 0.0114772
2412 0.0082069
2424 0.013647
2436 0.0084221
2448 0.00930302
2460 0.0165807
2472 0.0272528
2484 0.007664
2496 0.00334973
2508 0.0122433
2520 0.0285068
2532 0.0051979
2544 0.00681998
2556 0.00464812
2568 0.0117736
2580 0.00925498
2592 0.00978125
2604 0.00122967
2616 0.00174597
2628 0.00764247
2640 0.0140179
2652 0.0209898
2664 0.00364818
2676 0.00158414
2688 0.000367058
2700 0.00481574
2712 0.00608938
2724 0.0128294
2736 0.022084
2748 0.0070281
2760 0.00788066
2772 0.00944217
2784 0.0143353
2796 0.00431974
2808 0.00559646
2820 0.0106668
2832 0.000541728
2844 0.00326
2856 0.00546718
2868 0.00722617
2880 0.00425485
2892 0.0113498
2904 0.0229324
2916 0.00722741
2928 0.00443736
2940 0.00451264
2952 0.00383846
2964 0.00481352
2976 0.00688399
2988 0.00114167
3000 0.00144143
3012 0.00212257
3024 0.00688038
3036 0.00706605
3048 0.00398846
3060 0.0106601
3072 0.00652284
3084 0.00525951
3096 0.0120069
3108 0.00506831
3120 0.00955373
3132 0.0110313
3144 0.002591
3156 0.0034139
3168 0.00782193
3180 0.00506763
3192 0.0103928
3204 0.0143223
3216 0.00234036
3228 0.00198341
3240 0.00176039
3252 0.00314827
3264 0.00537443
3276 0.00619689
3288 0.00103851
3300 0.00242277
3312 0.00272065
3324 0.00181341
3336 0.00428268
3348 0.00905922
3360 0.00419062
3372 0.00584607
3384 0.00630899
3396 0.00459007
3408 0.00571828
3420 0.00773013
3432 0.00150403
3444 0.00577233
3456 0.0110919
3468 0.0134245
3480 0.012359
3487 0.0269669

File: BTO_365K_tth.xy
0.000000000000000000e+00 0.000887986
12 0.0128176
24 0.0135614
36 0.0032307
48 0.00327319
60 0.00338517
72 0.003563
84 0.00400035
96 0.00388448
108 0.00386754
120 0.00387197
132 0.00388722
144 0.00380166
156 0.00370446
168 0.00364522
180 0.00352545
192 0.00354051
204 0.00338754
216 0.00336097
228 0.00332831
240 0.00328798
252 0.00342367
264 0.0034319
276 0.00362096
288 0.00389563
300 0.00350139
312 0.00318157
324 0.004155
336 0.0663945
348 0.00254861
360 0.00544681
372 0.00159791
384 0.00165491
396 0.00164114
408 0.00166798
420 0.00187735
432 0.00202439
444 0.00296298
456 0.00549756
468 0.0876839
480 0.0234773
492 0.00413158
504 0.00242884
516 0.00241567
528 0.000975695
540 0.000947599
552 0.00116714
564 0.00228584
576 0.0676995
588 0.00526104
600 0.00176602
612 0.00124692
624 0.00274443
636 0.00212436
648 0.00306262
660 0.0205443
672 0.323125
684 0.00517926
696 0.00246607
708 0.00150118
720 0.00131042
732 0.0020905
744 0.0467486
756 0.00724509
768 0.00163333
780 0.0017563
792 0.0027547
804 0.00615041
816 0.190584
828 0.0209026
840 0.00351461
852 0.00182775
864 0.0013611
876 0.00111389
888 0.00127234
900 0.00100778
912 0.00121001
924 0.00180509
936 0.00799373
948 0.278309
960 0.00503003
972 0.00201443
984 0.00177948
996 0.00693867
1008 0.0528382
1020 0.00191653
1032 0.00213669
1044 0.00653515
1056 0.117025
1068 0.0191262
1080 0.00282412
1092 0.0027499
1104 0.0328446
1116 0.0525673
1128 0.00159001
1140 0.00111481
1152 0.0050906
1164 0.0390263
1176 0.00152183
1188 0.00135219
1200 0.00672363
1212 0.0296236
1224 0.00301493
1236 0.00552795
1248 0.0943146
1260 0.0583148
1272 0.00394514
1284 0.00148386
1296 0.000912788
1308 0.00101636
1320 0.00122057
1332 0.0180725
1344 0.0494011
1356 0.00251185
1368 0.00339853
1380 0.0397914
1392 0.00505301
1404 0.00451876
1416 0.0628999
1428 0.075227
1440 0.00426453
1452 0.00616389
1464 0.043399
1476 0.00395662
1488 0.013789
1500 0.0972147
1512 0.00722289
1524 0.00494819
1536 0.0273451
1548 0.00380383
1560 0.00355361
1572 0.10565
1584 0.00407233
1596 0.00179267
1608 0.00176411
1620 0.00243674
1632 0.00889397
1644 0.096506
1656 0.00604694
1668 0.00719617
1680 0.0178666
1692 0.00697682
1704 0.0601069
1716 0.110625
1728 0.00797472
1740 0.0156746
1752 0.00889821
1764 0.00143105
1776 0.00129928
1788 0.00166352
1800 0.0132597
1812 0.0251594
1824 0.00904139
1836 0.0273231
1848 0.0121767
1860 0.00151349
1872 0.000874005
1884 0.00142756
1896 0.0292289
1908 0.00503467
1920 0.00677936
1932 0.018386
1944 0.00530342
1956 0.055389
1968 0.00802118
1980 0.0207587
1992 0.0246384
2004 0.00911239
2016 0.0425413
2028 0.00527149
2040 0.00314844
2052 0.00657103
2064 0.0356483
2076 0.0558819
2088 0.00315566
2100 0.00158328
2112 0.0106323
2124 0.0111547
2136 0.00797342
2148 0.0156218
2160 0.00851563
2172 0.0287442
2184 0.0230196
2196 0.00539832
2208 0.00890934
2220 0.0129294
2232 0.0264054
2244 0.00599889
2256 0.0136024
2268 0.0111196
2280 0.0205536
2292 0.00377701
2304 0.000658858
2316 0.00127559
2328 0.0132821
2340 0.00394552
2352 0.00621637
2364 0.0112237
2376 0.0420326
2388 0.0142097
2400 0.0117293
2412 0.0086688
2424 0.0146745
2436 0.00930112
2448 0.0101674
2460 0.0174142
2472 0.0278074
2484 0.00786209
2496 0.00385079
2508 0.012975
2520 0.0294268
2532 0.00536896
2544 0.00801145
2556 0.00499376
2568 0.0115557
2580 0.00892521
2592 0.010117
2604 0.00226848
2616 0.00208963
2628 0.00890843
2640 0.0141173
2652 0.0209826
2664 0.00405572
2676 0.00160277
2688 0.000874257
2700 0.0049998
2712 0.00724708
2724 0.0123687
2736 0.0221444
2748 0.00629309
2760 0.0074101
2772 0.00925527
2784 0.0144184
2796 0.00382311
2808 0.00482888
2820 0.0101924
2832 0.000732383
2844 0.00240967
2856 0.00501241
2868 0.00690225
2880 0.00490553
2892 0.0109171
2904 0.0221382
2916 0.00709387
2928 0.00491489
2940 0.00447147
2952 0.00354236
2964 0.005822
2976 0.00635639
2988 0.00149731
3000 0.00274663
3012 0.00253047
3024 0.00610419
3036 0.00711661
3048 0.00299857
3060 0.00926507
3072 0.00836376
3084 0.00511122
3096 0.0123425
3108 0.00567449
3120 0.00972679
3132 0.0125671
3144 0.00275055
3156 0.00400605
3168 0.00718694
3180 0.00698075
3192 0.0109997
3204 0.0148849
3216 0.00372338
3228 0.00431102
3240 0.00127469
3252 0.00516434
3264 0.00532197
3276 0.00925329
3288 0.00121207
3300 0.000846945
3312 0.00200996
3324 0.00336313
3336 0.0042364
3348 0.00897539
3360 0.00574062
3372 0.00694064
3384 0.00571619
3396 0.00459935
3408 0.00732907
3420 0.00480399
3432 0.00878386
3444 0.0108486
3456 0.0132698
3468 0.00678296
3480 0.0230159
3487 0.00044288

File: BTO_370K_tth.xy
0.000000000000000000e+00 4.9343e-05
12 0.0123488
24 0.0132726
36 0.00302221
48 0.00313486
60 0.00324023
72 0.00337724
84 0.00374379
96 0.00356053
108 0.00337326
120 0.00331256
132 0.00321268
144 0.00303624
156 0.0028783
168 0.00271444
180 0.00251935
192 0.00227621
204 0.00218072
216 0.00208297
228 0.00203708
240 0.00199855
252 0.00204769
264 0.00218934
276 0.00236987
288 0.00260462
300 0.00218099
312 0.0019966
324 0.00300165
336 0.0639813
348 0.00147109
360 0.00431372
372 0.000572257
384 0.000712982
396 0.000754191
408 0.000737435
420 0.000959223
432 0.00106802
444 0.00221005
456 0.00489956
468 0.0871469
480 0.022516
492 0.00326773
504 0.00161687
516 0.00165531
528 0.000171458
540 0.000143052
552 0.000248105
564 0.00146076
576 0.067836
588 0.00473332
600 0.00104188
612 0.000609187
624 0.00202104
636 0.00154999
648 0.00235189
660 0.0197588
672 0.315161
684 0.00436208
696 0.00180348
708 0.000757373
720 0.00065151
732 0.00153183
744 0.0452248
756 0.00628953
768 0.000742003
780 0.000667053
792 0.00163745
804 0.00540865
816 0.188452
828 0.0198663
840 0.00326013
852 0.00106435
864 0.00058717
876 0.00051944
888 0.000479677
900 0.000208375
912 0.000252642
924 0.00123786
936 0.00740283
948 0.279204
960 0.00463911
972 0.00147443
984 0.00127777
996 0.0064643
1008 0.0504778
1020 0.00146494
1032 0.00163042
1044 0.00596523
1056 0.118111
1068 0.0180825
1080 0.00281119
1092 0.00221178
1104 0.0314833
1116 0.0494852
1128 0.0014891
1140 0.000911137
1152 0.00482754
1164 0.0372293
1176 0.00122881
1188 0.00108407
1200 0.00617464
1212 0.0283025
1224 0.0024362
1236 0.00501595
1248 0.0926958
1260 0.0551932
1272 0.00372303
1284 0.00106992
1296 0.00048722
1308 0.000493337
1320 0.000884327
1332 0.0173701
1344 0.0493799
1356 0.00178558
1368 0.00263426
1380 0.0398203
1392 0.00430693
1404 0.00413309
1416 0.0622115
1428 0.0693553
1440 0.00332697
1452 0.00511842
1464 0.0425396
1476 0.00285311
1488 0.0121999
1500 0.0992029
1512 0.00636466
1524 0.00395627
1536 0.027005
1548 0.00282307
1560 0.00216458
1572 0.105022
1584 0.00301357
1596 0.000717902
1608 0.000428128
1620 0.00123756
1632 0.00734935
1644 0.0976088
1656 0.00424037
1668 0.0059623
1680 0.0167497
1692 0.00580605
1704 0.058673
1716 0.104403
1728 0.00714728
1740 0.0150708
1752 0.00740257
1764 0.000703888
1776 0.000395868
1788 0.000750159
1800 0.0123972
1812 0.0232665
1824 0.0078189
1836 0.0272953
1848 0.0110365
1860 0.000849031
1872 0.000284138
1884 0.00053708
1896 0.028542
1908 0.00456908
1920 0.00576878
1932 0.0178956
1944 0.00495264
1956 0.05658
1968 0.00725716
1980 0.0204949
1992 0.0233575
2004 0.00845387
2016 0.0424575
2028 0.00508798
2040 0.00317643
2052 0.00632302
2064 0.0353676
2076 0.0538158
2088 0.00307641
2100 0.00145323
2112 0.0104345
2124 0.0115309
2136 0.00758137
2148 0.0165895
2160 0.00816537
2172 0.0289153
2184 0.0219167
2196 0.00604289
2208 0.00792914
2220 0.0126565
2232 0.0273717
2244 0.00580901
2256 0.0139105
2268 0.0108401
2280 0.0210259
2292 0.00334024
2304 0.000594251
2316 0.0003815
2328 0.0127186
2340 0.0023926
2352 0.00573133
2364 0.0103418
2376 0.0418501
2388 0.0121566
2400 0.0112333
2412 0.00699166
2424 0.0145255
2436 0.00768896
2448 0.00912018
2460 0.016039
2472 0.0277565
2484 0.00688491
2496 0.00300476
2508 0.0116299
2520 0.0281097
2532 0.0041569
2544 0.00673774
2556 0.00375117
2568 0.0104881
2580 0.00802472
2592 0.00855625
2604 0.00122599
2616 0.00156999
2628 0.00760748
2640 0.0130798
2652 0.0211801
2664 0.00237218
2676 0.00119611
2688 0.00122579
2700 0.00461351
2712 0.00700996
2724 0.0118502
2736 0.0219215
2748 0.00652683
2760 0.00808915
2772 0.00869504
2784 0.0128658
2796 0.003557
2808 0.00494974
2820 0.0100208
2832 0.000400689
2844 0.00300596
2856 0.0049817
2868 0.00685973
2880 0.00506391
2892 0.0109345
2904 0.0216693
2916 0.00744836
2928 0.00478213
2940 0.0047894
2952 0.00389033
2964 0.00545651
2976 0.00762041
2988 0.00145786
3000 0.0013989
3012 0.00392258
3024 0.00655172
3036 0.0083838
3048 0.00333185
3060 0.0104509
3072 0.00831979
3084 0.0059661
3096 0.0107368
3108 0.00630612
3120 0.0102283
3132 0.0126638
3144 0.0030457
3156 0.00393975
3168 0.00700681
3180 0.00570382
3192 0.00995188
3204 0.0142587
3216 0.00323471
3228 0.00364728
3240 0.00140532
3252 0.00118288
3264 0.00423049
3276 0.00837538
3288 0.00144256
3300 0.00370637
3312 0.0032843
3324 0.00451659
3336 0.00532954
3348 0.00938359
3360 0.00515276
3372 0.00300898
3384 0.00297793
3396 0.00257894
3408 0.00221321
3420 0.00214784
3432 0.00157772
3444 0.00962155
3456 0.00671069
3468 0.00856871
3480 0.0132855
3487 0.0195531

File: BTO_375K_tth.xy
0.000000000000000000e+00 0.000797095
12 0.0130647
24 0.0139031
36 0.00368896
48 0.00378535
60 0.00386874
72 0.0040231
84 0.00436984
96 0.00425573
108 0.00410056
120 0.0039483
132 0.00390231
144 0.00384901
156 0.00358735
168 0.00339597
180 0.00335338
192 0.00305897
204 0.00291284
216 0.00289531
228 0.00289297
240 0.00282998
252 0.00289544
264 0.00296335
276 0.00311222
288 0.00338259
300 0.00299158
312 0.00279498
324 0.00370533
336 0.0641889
348 0.00218136
360 0.00498506
372 0.00143445
384 0.00149654
396 0.00146795
408 0.00158787
420 0.00174529
432 0.00181038
444 0.00282177
456 0.00542941
468 0.0880996
480 0.023046
492 0.00409009
504 0.00249084
516 0.00236148
528 0.000950452
540 0.000768679
552 0.00115485
564 0.00242483
576 0.0688669
588 0.00528307
600 0.00170245
612 0.00133513
624 0.00273132
636 0.00208569
648 0.00317833
660 0.0200574
672 0.311178
684 0.00493531
696 0.00240322
708 0.00151531
720 0.00143644
732 0.00189198
744 0.0457527
756 0.00680537
768 0.00145597
780 0.00160135
792 0.00261959
804 0.00622418
816 0.188476
828 0.0203761
840 0.00340027
852 0.00189896
864 0.00131125
876 0.000843259
888 0.00118255
900 0.00065459
912 0.000876478
924 0.00167623
936 0.00773634
948 0.280692
960 0.00505163
972 0.00196343
984 0.0016543
996 0.00685488
1008 0.0500907
1020 0.00196234
1032 0.00215919
1044 0.0064322
1056 0.120077
1068 0.0181107
1080 0.00320558
1092 0.00273227
1104 0.0316505
1116 0.0484035
1128 0.00206796
1140 0.00139344
1152 0.00521329
1164 0.0368071
1176 0.00164378
1188 0.0016914
1200 0.00678598
1212 0.0283694
1224 0.0028647
1236 0.00534684
1248 0.0924097
1260 0.0538324
1272 0.00382472
1284 0.00168945
1296 0.00099598
1308 0.000910488
1320 0.00121837
1332 0.0174147
1344 0.0498708
1356 0.00220771
1368 0.00302155
1380 0.0403597
1392 0.00460338
1404 0.00414091
1416 0.0621097
1428 0.0673775
1440 0.0042625
1452 0.00571655
1464 0.0431129
1476 0.00357924
1488 0.0129681
1500 0.101131
1512 0.00681026
1524 0.00446455
1536 0.0279699
1548 0.00348331
1560 0.00326701
1572 0.105934
1584 0.0038565
1596 0.00152228
1608 0.00164754
1620 0.00196177
1632 0.00859739
1644 0.0995906
1656 0.00508263
1668 0.00647085
1680 0.0175832
1692 0.00658881
1704 0.0594467
1716 0.102275
1728 0.0075642
1740 0.0158342
1752 0.00768337
1764 0.00094077
1776 0.000733066
1788 0.00150549
1800 0.0133287
1812 0.0238054
1824 0.00837704
1836 0.0280138
1848 0.0112151
1860 0.00172473
1872 0.000766156
1884 0.00131152
1896 0.0286535
1908 0.00464345
1920 0.00664228
1932 0.0179461
1944 0.00524969
1956 0.057553
1968 0.00795354
1980 0.0205779
1992 0.0229777
2004 0.00969226
2016 0.0432837
2028 0.00544142
2040 0.00380662
2052 0.00649985
2064 0.0352316
2076 0.0519521
2088 0.00357914
2100 0.00229888
2112 0.0105069
2124 0.0126237
2136 0.00746079
2148 0.0163375
2160 0.00798162
2172 0.0285981
2184 0.0213536
2196 0.00547278
2208 0.00858519
2220 0.0124478
2232 0.0274889
2244 0.00587639
2256 0.0140584
2268 0.0105752
2280 0.0217986
2292 0.00368373
2304 0.000931412
2316 0.000886595
2328 0.0136957
2340 0.00279958
2352 0.00631595
2364 0.0104225
2376 0.0421547
2388 0.0121544
2400 0.0114407
2412 0.00762833
2424 0.0148451
2436 0.00831423
2448 0.00999568
2460 0.017185
2472 0.0285405
2484 0.00724331
2496 0.00379868
2508 0.0122451
2520 0.0278904
2532 0.00529239
2544 0.00740307
2556 0.0046519
2568 0.011361
2580 0.00874953
2592 0.00872135
2604 0.00114293
2616 0.00253501
2628 0.00811365
2640 0.0134924
2652 0.0218931
2664 0.00355229
2676 0.00153976
2688 0.000664294
2700 0.00556617
2712 0.00726106
2724 0.0122435
2736 0.0230837
2748 0.00589705
2760 0.00892105
2772 0.00966188
2784 0.0137523
2796 0.00491381
2808 0.00542194
2820 0.0107
2832 0.00060568
2844 0.00305846
2856 0.00506768
2868 0.00675226
2880 0.00493416
2892 0.011118
2904 0.0217089
2916 0.00765974
2928 0.00499288
2940 0.00458428
2952 0.0034686
2964 0.00433633
2976 0.00746745
2988 0.00122009
3000 0.00148348
3012 0.00283655
3024 0.00492751
3036 0.00713371
3048 0.00238681
3060 0.00962136
3072 0.00701814
3084 0.00426739
3096 0.00984464
3108 0.00591402
3120 0.00959607
3132 0.0110834
3144 0.00256364
3156 0.00353575
3168 0.00636839
3180 0.00620681
3192 0.0101045
3204 0.0143284
3216 0.00227179
3228 0.00374495
3240 0.000923421
3252 0.0051154
3264 0.00605634
3276 0.00709095
3288 0.00308858
3300 0.00344457
3312 0.00467584
3324 0.0048011
3336 0.00411363
3348 0.00821784
3360 0.00495914
3372 0.00306868
3384 0.00661914
3396 0.00446768
3408 0.00481891
3420 0.000607589
3432 0.00518574
3444 0.00822575
3456 0.00312452
3468 0.00666543
3480 0.00628421
3487 0.0197785