Folder: pub-Maffettone_2021_04/constrainednmf/example_data/BaTiO3_xrd_ramp (part 3)

File: BTO_200K_tth.xy
0.000000000000000000e+00 0.000466732
12 0.0105377
24 0.0116514
36 0.00332307
48 0.00351371
60 0.00364557
72 0.00380448
84 0.0040961
96 0.00390453
108 0.00378157
120 0.00369063
132 0.00357274
144 0.00335925
156 0.00323425
168 0.0030067
180 0.0029052
192 0.00265585
204 0.0024567
216 0.00243636
228 0.00224873
240 0.00221781
252 0.00222826
264 0.00227223
276 0.00226711
288 0.00254433
300 0.00235298
312 0.00224513
324 0.00309979
336 0.0683528
348 0.00217462
360 0.00453932
372 0.00123299
384 0.00185324
396 0.00122148
408 0.00114171
420 0.00169282
432 0.00150266
444 0.00239415
456 0.00485889
468 0.0673828
480 0.0269692
492 0.00358267
504 0.00193519
516 0.00219683
528 0.000682582
540 0.000554489
552 0.000767479
564 0.00192725
576 0.0479382
588 0.0056088
600 0.00143493
612 0.00106293
624 0.00223436
636 0.00214395
648 0.0074443
660 0.0142124
672 0.234176
684 0.00524259
696 0.00357851
708 0.00139559
720 0.00101807
732 0.00138154
744 0.0256478
756 0.00995373
768 0.000833026
780 0.00128461
792 0.00164898
804 0.00460009
816 0.112121
828 0.0294359
840 0.00319242
852 0.00109479
864 0.00113449
876 0.000963944
888 0.00101605
900 0.000655633
912 0.000677858
924 0.00142525
936 0.00609855
948 0.341802
960 0.0058874
972 0.00225979
984 0.00230378
996 0.00448868
1008 0.0711479
1020 0.0020127
1032 0.00176048
1044 0.00503561
1056 0.136153
1068 0.0422309
1080 0.00327186
1092 0.00309765
1104 0.0149855
1116 0.071886
1128 0.00215688
1140 0.00102344
1152 0.00400414
1164 0.100892
1176 0.00154028
1188 0.00106819
1200 0.00469608
1212 0.0348619
1224 0.0023054
1236 0.00392277
1248 0.0567245
1260 0.121339
1272 0.00418374
1284 0.000952053
1296 0.000489817
1308 0.000785717
1320 0.000828298
1332 0.00573318
1344 0.0249282
1356 0.00315893
1368 0.00210267
1380 0.047631
1392 0.0110649
1404 0.00365161
1416 0.0379528
1428 0.0797268
1440 0.00478611
1452 0.00521148
1464 0.0689784
1476 0.00338851
1488 0.00815036
1500 0.119429
1512 0.0116267
1524 0.00397488
1536 0.0417802
1548 0.00583916
1560 0.00271383
1572 0.0631966
1584 0.00494336
1596 0.00126559
1608 0.00109908
1620 0.00173871
1632 0.00511206
1644 0.094923
1656 0.00729462
1668 0.00482097
1680 0.0213158
1692 0.00523179
1704 0.0461016
1716 0.114039
1728 0.00816706
1740 0.0269882
1752 0.0141826
1764 0.00158584
1776 0.000584745
1788 0.00097149
1800 0.00893944
1812 0.0322054
1824 0.00547608
1836 0.0644153
1848 0.0367983
1860 0.00183668
1872 0.00077714
1884 0.00105638
1896 0.0133621
1908 0.0080299
1920 0.00529682
1932 0.0205501
1944 0.00466573
1956 0.0523641
1968 0.0171877
1980 0.0147331
1992 0.0262818
2004 0.00691483
2016 0.0561747
2028 0.00875635
2040 0.00860851
2052 0.00639722
2064 0.0306583
2076 0.0555568
2088 0.00610059
2100 0.00229535
2112 0.00400995
2124 0.0271966
2136 0.0172007
2148 0.0207632
2160 0.0124436
2172 0.0177859
2184 0.0367674
2196 0.0050363
2208 0.0135528
2220 0.00682587
2232 0.0211857
2244 0.00870845
2256 0.0181082
2268 0.00727259
2280 0.0311609
2292 0.0130693
2304 0.000987127
2316 0.000523239
2328 0.00737253
2340 0.00279788
2352 0.0101717
2364 0.0095744
2376 0.0403272
2388 0.0173181
2400 0.01498
2412 0.00868335
2424 0.0175259
2436 0.0122018
2448 0.0128313
2460 0.01236
2472 0.0434675
2484 0.0171865
2496 0.00317767
2508 0.0073986
2520 0.0337935
2532 0.00731371
2544 0.00805725
2556 0.00680326
2568 0.00749504
2580 0.0128882
2592 0.0108897
2604 0.00144894
2616 0.00132877
2628 0.00886963
2640 0.0119105
2652 0.0332421
2664 0.0100172
2676 0.00078048
2688 0.00185071
2700 0.00283621
2712 0.00974812
2724 0.0109132
2736 0.0286304
2748 0.0128238
2760 0.00588731
2772 0.0134686
2784 0.0154354
2796 0.0111924
2808 0.00747341
2820 0.016471
2832 0.000433114
2844 0.00094029
2856 0.00900525
2868 0.00782937
2880 0.00605285
2892 0.016555
2904 0.0226
2916 0.0123077
2928 0.00754955
2940 0.00945314
2952 0.00690224
2964 0.00729968
2976 0.00976418
2988 0.00478526
3000 0.00176379
3012 0.00423444
3024 0.00617366
3036 0.0081964
3048 0.00875942
3060 0.00747014
3072 0.0106879
3084 0.00797436
3096 0.00952884
3108 0.00616336
3120 0.011241
3132 0.0212092
3144 0.00535781
3156 0.00247147
3168 0.00870451
3180 0.0078372
3192 0.0111585
3204 0.0186106
3216 0.00800388
3228 0.00123749
3240 0.00213178
3252 0.00131193
3264 0.0062821
3276 0.0108733
3288 0.00372705
3300 0.00149068
3312 0.00333052
3324 0.00538496
3336 0.0082289
3348 0.0119272
3360 0.0081803
3372 0.00517831
3384 0.00740234
3396 0.00621619
3408 0.0056862
3420 0.00418574
3432 0.00435967
3444 0.00989276
3456 0.00920101
3468 0.011417
3480 0.0145943
3487 0.0260507

File: BTO_205K_tth.xy
0.000000000000000000e+00 0.000564431
12 0.0105412
24 0.0115968
36 0.00310752
48 0.00331594
60 0.00340518
72 0.00356549
84 0.00389729
96 0.00383008
108 0.00373291
120 0.00363107
132 0.00355468
144 0.00352674
156 0.00327642
168 0.00317623
180 0.00303325
192 0.00287647
204 0.00274843
216 0.00259171
228 0.00254332
240 0.00244406
252 0.00250492
264 0.00256267
276 0.00263432
288 0.00279491
300 0.00262766
312 0.00248189
324 0.00339016
336 0.0692241
348 0.0024529
360 0.00476116
372 0.00139018
384 0.00148435
396 0.00147088
408 0.00131182
420 0.00168103
432 0.00172842
444 0.00239474
456 0.00486745
468 0.0690399
480 0.0268984
492 0.00390583
504 0.00217127
516 0.00228988
528 0.00065415
540 0.000683199
552 0.000731431
564 0.00190766
576 0.0482845
588 0.0059318
600 0.00165928
612 0.00106748
624 0.00250213
636 0.00222843
648 0.00593551
660 0.0142575
672 0.230679
684 0.00567594
696 0.00350063
708 0.00161786
720 0.0010478
732 0.0015033
744 0.0268747
756 0.0101386
768 0.00101228
780 0.00165597
792 0.00175926
804 0.00484188
816 0.115671
828 0.0296693
840 0.00332
852 0.00128495
864 0.00110086
876 0.000926299
888 0.00125929
900 0.000664224
912 0.000622006
924 0.00156246
936 0.00630318
948 0.340589
960 0.00585651
972 0.00233919
984 0.00240158
996 0.00507404
1008 0.0703987
1020 0.00202467
1032 0.00191929
1044 0.00499498
1056 0.143207
1068 0.0434076
1080 0.00327871
1092 0.00329474
1104 0.0153917
1116 0.0738377
1128 0.00217912
1140 0.00146334
1152 0.0040891
1164 0.0991696
1176 0.00174498
1188 0.00102563
1200 0.00474836
1212 0.0349422
1224 0.00238733
1236 0.00416899
1248 0.0594709
1260 0.123936
1272 0.00395234
1284 0.00124819
1296 0.00080335
1308 0.000480901
1320 0.00100215
1332 0.00626028
1344 0.0229181
1356 0.00330777
1368 0.00240626
1380 0.0489323
1392 0.011709
1404 0.00382234
1416 0.0402505
1428 0.0803629
1440 0.00466689
1452 0.0054987
1464 0.0695041
1476 0.00367989
1488 0.00878357
1500 0.116271
1512 0.0116678
1524 0.00412577
1536 0.0415053
1548 0.00617804
1560 0.00326829
1572 0.0646538
1584 0.00554602
1596 0.00180901
1608 0.00136521
1620 0.00199598
1632 0.00589672
1644 0.0941712
1656 0.00779481
1668 0.00552857
1680 0.0209278
1692 0.00586115
1704 0.0492617
1716 0.112945
1728 0.00846898
1740 0.0280471
1752 0.0149455
1764 0.00184442
1776 0.000823442
1788 0.00153953
1800 0.00963811
1812 0.0317354
1824 0.00592894
1836 0.0663483
1848 0.0390979
1860 0.00190054
1872 0.000444957
1884 0.00128549
1896 0.0134884
1908 0.00766201
1920 0.00500805
1932 0.020334
1944 0.00447022
1956 0.0526768
1968 0.0176105
1980 0.0152046
1992 0.0256811
2004 0.00691071
2016 0.056447
2028 0.00871545
2040 0.00879986
2052 0.00642037
2064 0.0321418
2076 0.0534147
2088 0.00576307
2100 0.00174657
2112 0.00456894
2124 0.0268935
2136 0.0183793
2148 0.0209107
2160 0.0124182
2172 0.0176777
2184 0.0366688
2196 0.00489028
2208 0.0135747
2220 0.00689462
2232 0.0194498
2244 0.0086452
2256 0.0175927
2268 0.00714716
2280 0.0307422
2292 0.0139283
2304 0.0010538
2316 0.000721177
2328 0.00739426
2340 0.00321972
2352 0.0102001
2364 0.0100704
2376 0.0404479
2388 0.0174454
2400 0.014946
2412 0.00845241
2424 0.0175419
2436 0.0126546
2448 0.0126322
2460 0.013175
2472 0.0422688
2484 0.0185556
2496 0.00353825
2508 0.00835504
2520 0.0327441
2532 0.00742641
2544 0.00777859
2556 0.00676351
2568 0.00684757
2580 0.0132856
2592 0.00987046
2604 0.00151473
2616 0.0020334
2628 0.00934103
2640 0.0124401
2652 0.0323124
2664 0.0107852
2676 0.000765346
2688 0.00278574
2700 0.00258398
2712 0.00916604
2724 0.0108124
2736 0.027787
2748 0.012841
2760 0.00534714
2772 0.0134552
2784 0.014716
2796 0.0107608
2808 0.00679585
2820 0.0161912
2832 0.00144709
2844 0.00115987
2856 0.00869764
2868 0.00748322
2880 0.00576325
2892 0.0171266
2904 0.0208769
2916 0.0124142
2928 0.00699706
2940 0.00836579
2952 0.00660872
2964 0.0059877
2976 0.00929594
2988 0.00461919
3000 0.000263919
3012 0.00407939
3024 0.00619475
3036 0.00710182
3048 0.00919669
3060 0.00708963
3072 0.011215
3084 0.00896487
3096 0.00916801
3108 0.00645137
3120 0.0115504
3132 0.0187368
3144 0.00618679
3156 0.00283284
3168 0.00881385
3180 0.0085242
3192 0.0114847
3204 0.0186359
3216 0.00957805
3228 0.00236974
3240 0.00134025
3252 0.00238769
3264 0.0073559
3276 0.0100147
3288 0.00367976
3300 0.00111806
3312 0.00401138
3324 0.00330777
3336 0.00615704
3348 0.0109641
3360 0.00672955
3372 0.00571885
3384 0.00557111
3396 0.00610661
3408 0.00746824
3420 0.00195848
3432 0.00414453
3444 0.00851498
3456 0.00867309
3468 0.0091742
3480 0.00194242
3487 0.00538605

File: BTO_210K_tth.xy
0.000000000000000000e+00 4.63567e-05
12 0.0101238
24 0.0112701
36 0.00277667
48 0.00297153
60 0.00303937
72 0.00321068
84 0.00352759
96 0.00349167
108 0.00331924
120 0.00315276
132 0.00312926
144 0.00296548
156 0.00279009
168 0.00261139
180 0.00242996
192 0.0023006
204 0.00218121
216 0.0020074
228 0.00194208
240 0.00185744
252 0.00190475
264 0.00192808
276 0.00197612
288 0.00227338
300 0.00209698
312 0.00202555
324 0.00290282
336 0.0693466
348 0.00193154
360 0.00431678
372 0.000929461
384 0.00111684
396 0.000879097
408 0.000908821
420 0.00120093
432 0.00125531
444 0.00199785
456 0.00448036
468 0.0701647
480 0.0264097
492 0.00350225
504 0.00183254
516 0.00190177
528 0.000399372
540 0.000170969
552 0.000333745
564 0.00147563
576 0.0485028
588 0.0054024
600 0.00127785
612 0.000669754
624 0.00206805
636 0.00180117
648 0.00507457
660 0.0139972
672 0.227634
684 0.00508803
696 0.00302645
708 0.00118702
720 0.000621313
732 0.00113105
744 0.0274879
756 0.00978078
768 0.000592836
780 0.000813811
792 0.00133097
804 0.00442472
816 0.118245
828 0.0292664
840 0.00300619
852 0.000550384
864 0.000543709
876 0.000485553
888 0.000593531
900 1.83284e-05
912 0.000344533
924 0.00106369
936 0.00603959
948 0.339151
960 0.00536098
972 0.00168955
984 0.00202704
996 0.0046587
1008 0.0690521
1020 0.00172153
1032 0.00168626
1044 0.0047841
1056 0.148347
1068 0.0434564
1080 0.00281309
1092 0.00295413
1104 0.0155955
1116 0.0753379
1128 0.00179642
1140 0.0010914
1152 0.00396816
1164 0.0974009
1176 0.00117675
1188 0.000614522
1200 0.00469643
1212 0.0346682
1224 0.00210094
1236 0.00384743
1248 0.0612093
1260 0.124455
1272 0.00391832
1284 0.000793475
1296 0.00010792
1308 0.000416328
1320 0.000617871
1332 0.00598148
1344 0.0206978
1356 0.00315081
1368 0.00187842
1380 0.0491268
1392 0.0114953
1404 0.00286276
1416 0.0414936
1428 0.0799997
1440 0.00439131
1452 0.00487074
1464 0.068524
1476 0.00252531
1488 0.00812929
1500 0.112912
1512 0.0111829
1524 0.003517
1536 0.0410195
1548 0.00556673
1560 0.00242319
1572 0.0647681
1584 0.00497518
1596 0.0012183
1608 0.000592436
1620 0.00121695
1632 0.00486478
1644 0.0922603
1656 0.0065822
1668 0.00476419
1680 0.0200711
1692 0.00536782
1704 0.0507755
1716 0.110969
1728 0.00762447
1740 0.0277771
1752 0.0148106
1764 0.00115815
1776 0.000205451
1788 0.000589864
1800 0.00982316
1812 0.0302993
1824 0.00541352
1836 0.0661129
1848 0.0407748
1860 0.00178314
1872 6.35492e-05
1884 0.000675157
1896 0.0129856
1908 0.00733917
1920 0.00512491
1932 0.0194879
1944 0.00445628
1956 0.0533028
1968 0.0175064
1980 0.0156002
1992 0.0250027
2004 0.00673048
2016 0.0559383
2028 0.00901238
2040 0.00788313
2052 0.006189
2064 0.0336317
2076 0.0519092
2088 0.0054944
2100 0.00184257
2112 0.00424123
2124 0.0259979
2136 0.0193909
2148 0.0206984
2160 0.0122734
2172 0.0178367
2184 0.0361186
2196 0.00520989
2208 0.0128536
2220 0.00703529
2232 0.0178028
2244 0.00848453
2256 0.0170576
2268 0.00704986
2280 0.0292737
2292 0.0135116
2304 0.000619229
2316 0.000398318
2328 0.00729026
2340 0.00228837
2352 0.00983101
2364 0.010024
2376 0.0399948
2388 0.0168235
2400 0.0139489
2412 0.00842072
2424 0.0166936
2436 0.0125591
2448 0.011862
2460 0.0136579
2472 0.0412198
2484 0.0181749
2496 0.00307703
2508 0.00845485
2520 0.0313237
2532 0.00711466
2544 0.00746795
2556 0.007038
2568 0.00660842
2580 0.0132267
2592 0.00983145
2604 0.00156068
2616 0.00165742
2628 0.00895458
2640 0.01257
2652 0.0309557
2664 0.0103978
2676 0.000453054
2688 0.00199285
2700 0.00265854
2712 0.00851613
2724 0.0119883
2736 0.0274113
2748 0.0136249
2760 0.00538819
2772 0.0138788
2784 0.0146951
2796 0.0105395
2808 0.00724685
2820 0.016173
2832 0.0015771
2844 0.0019796
2856 0.00923524
2868 0.0070347
2880 0.00627576
2892 0.0179119
2904 0.0205178
2916 0.0119344
2928 0.00753511
2940 0.00872767
2952 0.00613615
2964 0.00665398
2976 0.00863193
2988 0.00553051
3000 0.000637948
3012 0.00465316
3024 0.00527135
3036 0.00672397
3048 0.00929183
3060 0.0061914
3072 0.00987868
3084 0.00889348
3096 0.00807712
3108 0.00588804
3120 0.0115989
3132 0.0175559
3144 0.00475442
3156 0.00318526
3168 0.00901339
3180 0.00685907
3192 0.011151
3204 0.0169396
3216 0.0079062
3228 0.000423201
3240 0.000265598
3252 0.00112743
3264 0.00642957
3276 0.00960086
3288 0.00269489
3300 0.000572043
3312 0.00408683
3324 0.0024582
3336 0.00793087
3348 0.0110982
3360 0.00967499
3372 0.00553771
3384 0.00653699
3396 0.00823688
3408 0.00640823
3420 0.00550649
3432 0.00635608
3444 0.00848658
3456 0.0105067
3468 0.00578185
3480 0.0102599
3487 0.0138209

File: BTO_215K_tth.xy
0.000000000000000000e+00 0.000112894
12 0.00969995
24 0.0110487
36 0.00270825
48 0.00296801
60 0.00304879
72 0.00314706
84 0.00353175
96 0.00338208
108 0.00327105
120 0.00319745
132 0.00310292
144 0.00298787
156 0.00281765
168 0.00261602
180 0.00247787
192 0.00229926
204 0.00219277
216 0.00211713
228 0.00206849
240 0.00210147
252 0.00207398
264 0.00215711
276 0.00227557
288 0.00253537
300 0.00231355
312 0.00204297
324 0.00291354
336 0.0660666
348 0.0016327
360 0.00424438
372 0.000954292
384 0.000915468
396 0.000865717
408 0.00104332
420 0.00130081
432 0.00126232
444 0.00216543
456 0.00455447
468 0.0757286
480 0.0242891
492 0.00317014
504 0.00163191
516 0.00189066
528 0.000279216
540 0.000160598
552 0.000479528
564 0.00141059
576 0.0529672
588 0.00496927
600 0.000950986
612 0.000524797
624 0.00191658
636 0.00146276
648 0.00202457
660 0.01442
672 0.22141
684 0.00433999
696 0.00220865
708 0.000771743
720 0.000665132
732 0.00106645
744 0.03153
756 0.0088929
768 0.000913514
780 0.000703906
792 0.00159939
804 0.00481329
816 0.134737
828 0.0260924
840 0.0026816
852 0.000993307
864 0.000848076
876 0.000337276
888 0.000756535
900 0.000241037
912 0.000346742
924 0.00115208
936 0.00624713
948 0.33918
960 0.00516127
972 0.00136627
984 0.00144939
996 0.00445456
1008 0.0601875
1020 0.00144408
1032 0.00142126
1044 0.00474909
1056 0.163062
1068 0.0369574
1080 0.00265878
1092 0.00236515
1104 0.0173769
1116 0.0758075
1128 0.00184481
1140 0.000924308
1152 0.00406494
1164 0.0800552
1176 0.00124832
1188 0.00060411
1200 0.00507257
1212 0.0336212
1224 0.00192436
1236 0.00406167
1248 0.0700766
1260 0.107447
1272 0.00367786
1284 0.000790032
1296 0.000568948
1308 0.000425293
1320 0.000719964
1332 0.00672349
1344 0.0178741
1356 0.00224016
1368 0.00207149
1380 0.0503028
1392 0.0101988
1404 0.00304725
1416 0.048079
1428 0.0789426
1440 0.00395022
1452 0.00527619
1464 0.0654293
1476 0.00269445
1488 0.0085049
1500 0.100997
1512 0.00982359
1524 0.00361855
1536 0.0391614
1548 0.00440245
1560 0.00233439
1572 0.0711976
1584 0.00407571
1596 0.000795956
1608 0.000603016
1620 0.00117885
1632 0.00541478
1644 0.088083
1656 0.00613096
1668 0.00539032
1680 0.0185649
1692 0.00548841
1704 0.0586875
1716 0.103176
1728 0.00764479
1740 0.0296948
1752 0.0169964
1764 0.00102127
1776 0.000749118
1788 0.000876923
1800 0.0114551
1812 0.0278015
1824 0.00608387
1836 0.0666445
1848 0.0399016
1860 0.00172347
1872 0.000606583
1884 0.00129569
1896 0.0135208
1908 0.00637596
1920 0.00605317
1932 0.0185164
1944 0.00469782
1956 0.0555304
1968 0.0155693
1980 0.0171284
1992 0.0251607
2004 0.00751278
2016 0.0569682
2028 0.00904204
2040 0.00841471
2052 0.00660035
2064 0.0374196
2076 0.0497387
2088 0.00493361
2100 0.00212517
2112 0.0049577
2124 0.0232069
2136 0.0204419
2148 0.0209245
2160 0.0124902
2172 0.0182602
2184 0.0336771
2196 0.00556734
2208 0.0116387
2220 0.00808364
2232 0.0151993
2244 0.00780247
2256 0.0161205
2268 0.00751247
2280 0.026775
2292 0.0123533
2304 0.000401122
2316 6.1079e-05
2328 0.0081159
2340 0.00211857
2352 0.00915149
2364 0.0100209
2376 0.0403244
2388 0.0163953
2400 0.0131471
2412 0.00863871
2424 0.0163208
2436 0.0112693
2448 0.0115273
2460 0.0143283
2472 0.0386246
2484 0.0188062
2496 0.00250048
2508 0.00909096
2520 0.0293093
2532 0.00692285
2544 0.00703175
2556 0.00725459
2568 0.00581026
2580 0.0133868
2592 0.00846983
2604 0.00119461
2616 0.0017817
2628 0.00834698
2640 0.0134577
2652 0.0287219
2664 0.00938238
2676 0.0009709
2688 0.00221427
2700 0.00227755
2712 0.00857712
2724 0.0125045
2736 0.0257928
2748 0.0133959
2760 0.0054001
2772 0.0143012
2784 0.013574
2796 0.00953382
2808 0.00726197
2820 0.0158051
2832 0.00093745
2844 0.00169812
2856 0.00910802
2868 0.0080775
2880 0.00620763
2892 0.0194421
2904 0.0189186
2916 0.0110603
2928 0.00744134
2940 0.00971997
2952 0.00652193
2964 0.00607399
2976 0.00999245
2988 0.00503624
3000 0.00104443
3012 0.00510969
3024 0.0060924
3036 0.0061444
3048 0.00943686
3060 0.00674651
3072 0.00915197
3084 0.00818934
3096 0.00763662
3108 0.00620764
3120 0.010228
3132 0.0167621
3144 0.00498964
3156 0.00295793
3168 0.00862786
3180 0.00503205
3192 0.0115133
3204 0.0152823
3216 0.00638561
3228 0.00112333
3240 0.000764176
3252 0.0015396
3264 0.00821529
3276 0.0108505
3288 0.00456145
3300 0.00215267
3312 0.0043704
3324 0.00255402
3336 0.00836994
3348 0.00906119
3360 0.0059591
3372 0.00522119
3384 0.00903668
3396 0.00935399
3408 0.00679921
3420 0.00211573
3432 0.00514039
3444 0.00828723
3456 0.00801153
3468 0.00640354
3480 0.00773218
3487 0.000730104

File: BTO_220K_tth.xy
0.000000000000000000e+00 0.000274088
12 0.00989138
24 0.01122
36 0.00294525
48 0.00311374
60 0.0033061
72 0.00340454
84 0.00374206
96 0.00360869
108 0.00346144
120 0.00335923
132 0.00324973
144 0.00314779
156 0.00297124
168 0.00282197
180 0.00263426
192 0.00243392
204 0.00223257
216 0.00222147
228 0.00219081
240 0.00214402
252 0.0021463
264 0.00221531
276 0.00235874
288 0.00260917
300 0.00234719
312 0.00216554
324 0.00290987
336 0.0659201
348 0.00169063
360 0.00435434
372 0.000991379
384 0.000811673
396 0.000938985
408 0.00099651
420 0.0013317
432 0.0014037
444 0.00217329
456 0.00468357
468 0.0765218
480 0.0241485
492 0.00337313
504 0.00174434
516 0.00188598
528 0.000417939
540 0.000482769
552 0.000406114
564 0.00155082
576 0.0536438
588 0.00507512
600 0.00100929
612 0.000610359
624 0.00186842
636 0.00167717
648 0.00222823
660 0.0148893
672 0.22315
684 0.0044803
696 0.00231523
708 0.000811794
720 0.000841503
732 0.00133677
744 0.0322028
756 0.00852267
768 0.000794743
780 0.00108999
792 0.00176617
804 0.00486815
816 0.137158
828 0.025464
840 0.00303626
852 0.00103087
864 0.000733156
876 0.000263073
888 0.000672423
900 0.000191725
912 0.000416324
924 0.00112426
936 0.00640812
948 0.33908
960 0.00500813
972 0.00151826
984 0.00150287
996 0.00464249
1008 0.0589401
1020 0.00162274
1032 0.00133275
1044 0.00490885
1056 0.164865
1068 0.0355893
1080 0.00284177
1092 0.00225077
1104 0.0181517
1116 0.0767258
1128 0.00175485
1140 0.00110349
1152 0.00413765
1164 0.0775399
1176 0.00133481
1188 0.00109597
1200 0.0054714
1212 0.0335288
1224 0.00211311
1236 0.00426236
1248 0.0714218
1260 0.104311
1272 0.00380529
1284 0.000933985
1296 0.000445407
1308 0.000507112
1320 0.000635065
1332 0.00747537
1344 0.017484
1356 0.00244931
1368 0.00236162
1380 0.050537
1392 0.00989404
1404 0.00316093
1416 0.0495251
1428 0.0801442
1440 0.00394476
1452 0.00518629
1464 0.0646662
1476 0.00283412
1488 0.00899084
1500 0.098629
1512 0.00948757
1524 0.00360344
1536 0.0387336
1548 0.0045913
1560 0.00222694
1572 0.0720402
1584 0.00402884
1596 0.000620101
1608 0.000768479
1620 0.0011905
1632 0.00562058
1644 0.0864427
1656 0.0059454
1668 0.00558546
1680 0.0185564
1692 0.00533497
1704 0.0594637
1716 0.101494
1728 0.00739077
1740 0.0294637
1752 0.0177109
1764 0.000846251
1776 0.000705414
1788 0.000978754
1800 0.0113377
1812 0.0271849
1824 0.00645143
1836 0.0659399
1848 0.0389052
1860 0.00172081
1872 0.000156391
1884 0.00142459
1896 0.0136743
1908 0.00631385
1920 0.00580957
1932 0.01792
1944 0.00481928
1956 0.0560924
1968 0.0146862
1980 0.0170331
1992 0.0252133
2004 0.00730024
2016 0.0564745
2028 0.00869223
2040 0.00817139
2052 0.00666587
2064 0.0377785
2076 0.0490165
2088 0.00486707
2100 0.00192078
2112 0.00506916
2124 0.0223426
2136 0.0205932
2148 0.0206119
2160 0.0128235
2172 0.0185601
2184 0.0327157
2196 0.00534328
2208 0.011798
2220 0.00791996
2232 0.0146897
2244 0.00778084
2256 0.0161612
2268 0.00812074
2280 0.025781
2292 0.0111141
2304 0.000640078
2316 0.000512762
2328 0.0082079
2340 0.00256946
2352 0.00936126
2364 0.010207
2376 0.0401164
2388 0.0163119
2400 0.0130563
2412 0.00871468
2424 0.0169897
2436 0.011307
2448 0.0111714
2460 0.0143344
2472 0.0377245
2484 0.0195045
2496 0.00311112
2508 0.00884259
2520 0.0284367
2532 0.00721743
2544 0.00707108
2556 0.0075734
2568 0.00527222
2580 0.012647
2592 0.00855856
2604 0.00140607
2616 0.00210135
2628 0.00827953
2640 0.0140322
2652 0.0278337
2664 0.00864523
2676 0.00094536
2688 0.00168797
2700 0.00226413
2712 0.0088496
2724 0.0127535
2736 0.0251382
2748 0.0138734
2760 0.00519371
2772 0.0143079
2784 0.0130463
2796 0.00825712
2808 0.0081946
2820 0.0158401
2832 0.00021917
2844 0.00162187
2856 0.00794511
2868 0.00741652
2880 0.00565821
2892 0.0188365
2904 0.0189273
2916 0.0111451
2928 0.00734503
2940 0.00876221
2952 0.00686927
2964 0.00633672
2976 0.00931784
2988 0.00345037
3000 0.0010166
3012 0.00548237
3024 0.0061087
3036 0.00722172
3048 0.00881717
3060 0.00536096
3072 0.0098061
3084 0.00919088
3096 0.00754335
3108 0.00553663
3120 0.0118816
3132 0.0163155
3144 0.00543318
3156 0.00259532
3168 0.00904914
3180 0.00746502
3192 0.01244
3204 0.014639
3216 0.00832318
3228 0.00256666
3240 0.00183836
3252 0.00388888
3264 0.00748347
3276 0.0085182
3288 0.0039752
3300 0.00155169
3312 0.00224998
3324 0.00288818
3336 0.00748341
3348 0.00991689
3360 0.00767468
3372 0.00648498
3384 0.0067802
3396 0.00739498
3408 0.00481252
3420 0.00254082
3432 0.0036207
3444 0.00851103
3456 0.00904026
3468 0.00785509
3480 0.00862269
3487 0.0110772