Folder: pub-Maffettone_2021_04/constrainednmf/example_data/BaTiO3_xrd_ramp (part 11)

File: BTO_405K_tth.xy
0.000000000000000000e+00 2.98721e-05
12 0.0119712
24 0.0126211
36 0.00263265
48 0.00270747
60 0.00274383
72 0.00293757
84 0.00329246
96 0.00319641
108 0.00309315
120 0.00299393
132 0.00298298
144 0.00281283
156 0.0027106
168 0.00262327
180 0.00251013
192 0.00238935
204 0.00226964
216 0.00222388
228 0.00217969
240 0.00221417
252 0.00229494
264 0.00233234
276 0.00248727
288 0.00269181
300 0.00233774
312 0.00213768
324 0.00299837
336 0.055266
348 0.00153289
360 0.00423364
372 0.00089107
384 0.000886273
396 0.000803645
408 0.000949278
420 0.00109448
432 0.00120509
444 0.00215531
456 0.00456955
468 0.0856074
480 0.0205564
492 0.00319729
504 0.0018508
516 0.00153948
528 0.000245359
540 0.000344878
552 0.00047869
564 0.00166511
576 0.0710298
588 0.00413279
600 0.00088481
612 0.000482941
624 0.00172148
636 0.00156451
648 0.00218627
660 0.0180356
672 0.24758
684 0.00403486
696 0.00144834
708 0.000684551
720 0.000640945
732 0.00134623
744 0.0377565
756 0.00513479
768 0.000751745
780 0.000795048
792 0.00189755
804 0.0055216
816 0.170356
828 0.0174932
840 0.00273187
852 0.000999329
864 0.000639825
876 0.000337954
888 0.000317556
900 3.81906e-05
912 0.000309086
924 0.00111608
936 0.00705718
948 0.298261
960 0.00403153
972 0.00138684
984 0.000752636
996 0.00537206
1008 0.038716
1020 0.00100916
1032 0.0012326
1044 0.0056798
1056 0.132889
1068 0.0146022
1080 0.00239592
1092 0.00208006
1104 0.0243372
1116 0.0324394
1128 0.0013442
1140 0.000541921
1152 0.00481645
1164 0.0291326
1176 0.000889254
1188 0.000908215
1200 0.00557056
1212 0.0205155
1224 0.00202754
1236 0.00468836
1248 0.0789278
1260 0.0392369
1272 0.00322964
1284 0.00104563
1296 0.000297073
1308 0.000180438
1320 0.000606072
1332 0.0113764
1344 0.0425945
1356 0.00156856
1368 0.00259793
1380 0.0452212
1392 0.00367919
1404 0.00405017
1416 0.0541265
1428 0.0414162
1440 0.00359048
1452 0.00532722
1464 0.0395541
1476 0.00296877
1488 0.0106849
1500 0.122213
1512 0.00582899
1524 0.00395174
1536 0.0355284
1548 0.00251725
1560 0.00277018
1572 0.106786
1584 0.0029907
1596 0.000951069
1608 0.000899015
1620 0.00177535
1632 0.00704049
1644 0.111881
1656 0.00423013
1668 0.00555875
1680 0.0181471
1692 0.00573845
1704 0.0546198
1716 0.0655616
1728 0.00630126
1740 0.0179247
1752 0.00468597
1764 0.000867231
1776 0.000336907
1788 0.00101011
1800 0.0114272
1812 0.0155676
1824 0.00657288
1836 0.0364577
1848 0.00779545
1860 0.000782423
1872 0.000307812
1884 0.000343125
1896 0.0266824
1908 0.00285073
1920 0.00489792
1932 0.0148569
1944 0.00399181
1956 0.0628332
1968 0.00542542
1980 0.0170855
1992 0.0146415
2004 0.00763861
2016 0.0479288
2028 0.00387077
2040 0.00322537
2052 0.00483519
2064 0.0321198
2076 0.0322755
2088 0.00235873
2100 0.00154798
2112 0.00623023
2124 0.0166918
2136 0.00520658
2148 0.0173612
2160 0.00544912
2172 0.0254311
2184 0.0122361
2196 0.00403707
2208 0.00509794
2220 0.00989173
2232 0.0279959
2244 0.00414436
2256 0.014262
2268 0.0073231
2280 0.0268962
2292 0.00231559
2304 0.00036825
2316 0.00102772
2328 0.0123723
2340 0.00237611
2352 0.00723925
2364 0.00770298
2376 0.0453915
2388 0.00842136
2400 0.0117348
2412 0.00549547
2424 0.0159918
2436 0.00585672
2448 0.0102686
2460 0.0130949
2472 0.0356197
2484 0.00488137
2496 0.00309882
2508 0.00944038
2520 0.027921
2532 0.00465043
2544 0.0056361
2556 0.00468479
2568 0.00807716
2580 0.00871276
2592 0.0049966
2604 0.00069192
2616 0.00166196
2628 0.00832585
2640 0.0108205
2652 0.026153
2664 0.00243829
2676 0.000870764
2688 0.000809494
2700 0.0030183
2712 0.00745931
2724 0.00823691
2736 0.0234091
2748 0.00539467
2760 0.00569078
2772 0.00954061
2784 0.0091598
2796 0.00536235
2808 0.00420455
2820 0.00995888
2832 0.000654431
2844 0.00240711
2856 0.00600381
2868 0.00330774
2880 0.00505459
2892 0.0119802
2904 0.0148025
2916 0.00767806
2928 0.00292428
2940 0.00621913
2952 0.00402562
2964 0.00337024
2976 0.00599935
2988 0.0022314
3000 0.00144665
3012 0.00247082
3024 0.0035323
3036 0.00661498
3048 0.00433654
3060 0.00684634
3072 0.00882575
3084 0.00593466
3096 0.00982791
3108 0.00460862
3120 0.00869939
3132 0.0122779
3144 0.00287483
3156 0.00424144
3168 0.00439877
3180 0.00735605
3192 0.00691327
3204 0.0130433
3216 0.00282552
3228 0.00115802
3240 0.00105256
3252 0.00294469
3264 0.00317142
3276 0.00605003
3288 0.000728617
3300 0.00196305
3312 0.00191158
3324 0.00107497
3336 0.00299293
3348 0.00632029
3360 0.00290571
3372 0.00105423
3384 0.00598353
3396 0.0066935
3408 0.00493224
3420 0.00597045
3432 0.00494107
3444 0.00804947
3456 0.0092138
3468 0.0113791
3480 0.0232271
3487 2.83954e-05

File: BTO_410K_tth.xy
0.000000000000000000e+00 0.000740806
12 0.0124907
24 0.0130334
36 0.00290096
48 0.00297315
60 0.00297653
72 0.00313393
84 0.00353381
96 0.00344373
108 0.00330656
120 0.00335518
132 0.00329407
144 0.00330196
156 0.00322032
168 0.00310873
180 0.0030578
192 0.00297769
204 0.00285401
216 0.00285248
228 0.00288117
240 0.00280529
252 0.00296554
264 0.00300577
276 0.00317525
288 0.00344263
300 0.00302786
312 0.00275243
324 0.00374634
336 0.0559373
348 0.00217026
360 0.00472245
372 0.00134424
384 0.0013656
396 0.0012849
408 0.0014976
420 0.00153014
432 0.00164255
444 0.0024374
456 0.00521035
468 0.0855839
480 0.0209021
492 0.00364066
504 0.00202605
516 0.00203742
528 0.000690205
540 0.000541032
552 0.000869975
564 0.0019143
576 0.0714293
588 0.00464869
600 0.00132294
612 0.00100822
624 0.00248423
636 0.00194057
648 0.00276767
660 0.0184585
672 0.248246
684 0.00467947
696 0.00185253
708 0.0011347
720 0.00119074
732 0.00183002
744 0.0384906
756 0.00593932
768 0.00148512
780 0.0013738
792 0.00248602
804 0.00605307
816 0.17087
828 0.0180867
840 0.00364525
852 0.00154992
864 0.00120718
876 0.00104452
888 0.0010546
900 0.000917852
912 0.000838068
924 0.00149111
936 0.00751333
948 0.299294
960 0.00446447
972 0.0019536
984 0.00118051
996 0.00596472
1008 0.0391303
1020 0.00149255
1032 0.00139972
1044 0.00582864
1056 0.132244
1068 0.0150504
1080 0.00284349
1092 0.00201365
1104 0.024442
1116 0.0327335
1128 0.00143001
1140 0.00105254
1152 0.00515597
1164 0.0296811
1176 0.00128236
1188 0.000925093
1200 0.0055796
1212 0.0210204
1224 0.00250579
1236 0.00506433
1248 0.0791503
1260 0.039435
1272 0.00324132
1284 0.00141841
1296 0.000345466
1308 0.000713428
1320 0.000685147
1332 0.0117555
1344 0.0430292
1356 0.00177446
1368 0.00265827
1380 0.045183
1392 0.00397426
1404 0.00422798
1416 0.0543282
1428 0.0420761
1440 0.00382432
1452 0.00574056
1464 0.0401962
1476 0.00368888
1488 0.0115927
1500 0.122667
1512 0.00621143
1524 0.00476998
1536 0.0365472
1548 0.00326315
1560 0.0033349
1572 0.107438
1584 0.00321366
1596 0.00201532
1608 0.00145689
1620 0.00236709
1632 0.00785828
1644 0.112529
1656 0.004983
1668 0.00627018
1680 0.0189052
1692 0.00666208
1704 0.0552297
1716 0.0665359
1728 0.00720262
1740 0.0188013
1752 0.006096
1764 0.00143391
1776 0.00121928
1788 0.00155198
1800 0.0120716
1812 0.016605
1824 0.00753964
1836 0.0372494
1848 0.00825397
1860 0.001753
1872 0.000463281
1884 0.00145677
1896 0.0271018
1908 0.00349213
1920 0.00511428
1932 0.0152217
1944 0.00494636
1956 0.0638168
1968 0.00617551
1980 0.0176415
1992 0.0152227
2004 0.00787687
2016 0.0479893
2028 0.00389389
2040 0.00429953
2052 0.00528156
2064 0.0325023
2076 0.0327438
2088 0.00278615
2100 0.00129268
2112 0.00684853
2124 0.0175391
2136 0.00584467
2148 0.0178194
2160 0.00583062
2172 0.0255438
2184 0.0130829
2196 0.00469021
2208 0.00541061
2220 0.0101482
2232 0.0282837
2244 0.00491807
2256 0.0146738
2268 0.00714916
2280 0.0279636
2292 0.00243628
2304 0.000350655
2316 0.000800787
2328 0.0129461
2340 0.00237906
2352 0.0074409
2364 0.00775365
2376 0.044879
2388 0.0092431
2400 0.0121271
2412 0.00557429
2424 0.0163031
2436 0.00642562
2448 0.0106068
2460 0.0129896
2472 0.0361474
2484 0.0052384
2496 0.00346521
2508 0.00958944
2520 0.0276235
2532 0.00504457
2544 0.00640184
2556 0.00512767
2568 0.00841464
2580 0.00925425
2592 0.00581523
2604 0.00194123
2616 0.00218362
2628 0.00911265
2640 0.0109128
2652 0.0261346
2664 0.00298789
2676 0.00166023
2688 0.000911147
2700 0.00380365
2712 0.007214
2724 0.00954536
2736 0.0240582
2748 0.00482974
2760 0.0056937
2772 0.00888956
2784 0.00935591
2796 0.00443613
2808 0.00399628
2820 0.009635
2832 0.000246215
2844 0.00278117
2856 0.00648323
2868 0.00408184
2880 0.00556705
2892 0.0119746
2904 0.0158593
2916 0.0082233
2928 0.00301365
2940 0.00573969
2952 0.00399649
2964 0.00392358
2976 0.00756765
2988 0.00229494
3000 0.00308848
3012 0.00302566
3024 0.0040769
3036 0.00790792
3048 0.00442177
3060 0.00690836
3072 0.00907454
3084 0.00771486
3096 0.00912057
3108 0.00438892
3120 0.0107994
3132 0.0124166
3144 0.00409483
3156 0.00457584
3168 0.00624503
3180 0.00780542
3192 0.0105451
3204 0.0133989
3216 0.00507488
3228 0.00386021
3240 0.00213127
3252 0.00415494
3264 0.00647339
3276 0.00888643
3288 0.00416834
3300 0.0025831
3312 0.00464345
3324 0.00452525
3336 0.00616609
3348 0.00791412
3360 0.00682786
3372 0.00730364
3384 0.00559171
3396 0.00339327
3408 0.00467982
3420 0.00722415
3432 0.00374885
3444 0.0103335
3456 0.0119279
3468 0.0182708
3480 0.0166557
3487 0.000397643

File: BTO_415K_tth.xy
0.000000000000000000e+00 0.000290786
12 0.0121342
24 0.0128777
36 0.00301336
48 0.00310755
60 0.00319937
72 0.00325297
84 0.00366287
96 0.00347797
108 0.00334652
120 0.0032192
132 0.00318618
144 0.00292292
156 0.00289604
168 0.00267736
180 0.00263951
192 0.00243823
204 0.00222883
216 0.00226815
228 0.00222253
240 0.002163
252 0.00225613
264 0.00237374
276 0.00258164
288 0.00270813
300 0.0022676
312 0.00212798
324 0.00305011
336 0.0524065
348 0.00148346
360 0.00413037
372 0.000795833
384 0.00089254
396 0.000795647
408 0.000981865
420 0.00115115
432 0.00122903
444 0.00210838
456 0.00480639
468 0.0845281
480 0.0198549
492 0.00325857
504 0.00189788
516 0.00176143
528 0.00046434
540 0.000189399
552 0.000407419
564 0.00156769
576 0.0711796
588 0.00438964
600 0.0011418
612 0.000763971
624 0.00192868
636 0.00161057
648 0.0024884
660 0.0175054
672 0.222285
684 0.00409855
696 0.00162997
708 0.000689573
720 0.000919497
732 0.00141639
744 0.0348857
756 0.00503019
768 0.00100909
780 0.0010069
792 0.00211445
804 0.0056838
816 0.161626
828 0.0173394
840 0.00306284
852 0.00133603
864 0.000981479
876 0.000641447
888 0.000743853
900 0.000505783
912 0.000419099
924 0.00128828
936 0.00757202
948 0.308574
960 0.00424546
972 0.00137498
984 0.00118199
996 0.00558381
1008 0.0351022
1020 0.00164803
1032 0.00172527
1044 0.00579096
1056 0.1349
1068 0.0138286
1080 0.00281142
1092 0.00231702
1104 0.0220024
1116 0.0288857
1128 0.00119927
1140 0.000971917
1152 0.00514035
1164 0.0279914
1176 0.00125302
1188 0.00118079
1200 0.00547408
1212 0.0179737
1224 0.00237646
1236 0.00504831
1248 0.0734567
1260 0.0354215
1272 0.00362133
1284 0.000837701
1296 0.000403682
1308 0.000447085
1320 0.000814163
1332 0.00955883
1344 0.0375543
1356 0.00158776
1368 0.00256978
1380 0.0478426
1392 0.00331151
1404 0.00346017
1416 0.0481008
1428 0.0345806
1440 0.00352779
1452 0.00518092
1464 0.0365244
1476 0.00282422
1488 0.0103101
1500 0.132102
1512 0.00524896
1524 0.00354289
1536 0.0405043
1548 0.00200406
1560 0.0025287
1572 0.107255
1584 0.0027122
1596 0.000682792
1608 0.00061771
1620 0.00105871
1632 0.00678292
1644 0.114871
1656 0.00403291
1668 0.00515387
1680 0.0175512
1692 0.0059584
1704 0.0506238
1716 0.0537321
1728 0.00604171
1740 0.0196327
1752 0.00482811
1764 0.00112352
1776 0.000450546
1788 0.000924862
1800 0.0101286
1812 0.0131789
1824 0.00678205
1836 0.0431829
1848 0.00730064
1860 0.000888692
1872 0.000311957
1884 0.000911886
1896 0.0260576
1908 0.00259605
1920 0.00456364
1932 0.0133388
1944 0.00445498
1956 0.0665766
1968 0.00547735
1980 0.0158521
1992 0.0124728
2004 0.00751736
2016 0.0499073
2028 0.00384523
2040 0.0044093
2052 0.0049643
2064 0.0309562
2076 0.0265203
2088 0.00279586
2100 0.0014701
2112 0.00573301
2124 0.0215422
2136 0.00513964
2148 0.0180232
2160 0.00496326
2172 0.0238109
2184 0.00994909
2196 0.00454362
2208 0.00547673
2220 0.00854144
2232 0.0258145
2244 0.00389925
2256 0.0148689
2268 0.00641007
2280 0.0301637
2292 0.00207615
2304 0.000588979
2316 0.000568505
2328 0.0121664
2340 0.00215045
2352 0.00810679
2364 0.00695429
2376 0.0477465
2388 0.00784163
2400 0.0131042
2412 0.00510743
2424 0.017532
2436 0.00552093
2448 0.0114518
2460 0.01134
2472 0.0403791
2484 0.00484852
2496 0.00326941
2508 0.00839879
2520 0.0270492
2532 0.00418711
2544 0.00578602
2556 0.00495762
2568 0.00675374
2580 0.00954738
2592 0.00484194
2604 0.00176221
2616 0.00236263
2628 0.00885738
2640 0.00979274
2652 0.0268842
2664 0.00194542
2676 0.00117531
2688 0.00164082
2700 0.00300597
2712 0.00800209
2724 0.00810296
2736 0.0242854
2748 0.00465666
2760 0.00556302
2772 0.00993733
2784 0.00730043
2796 0.00583168
2808 0.00337786
2820 0.00967098
2832 0.000231325
2844 0.00189093
2856 0.00663438
2868 0.0032646
2880 0.00478555
2892 0.0118985
2904 0.0122265
2916 0.00796317
2928 0.00306512
2940 0.00549157
2952 0.00400832
2964 0.00293479
2976 0.00726915
2988 0.00213472
3000 0.000436784
3012 0.00351213
3024 0.00318402
3036 0.00546741
3048 0.00350922
3060 0.00550485
3072 0.00792664
3084 0.00523482
3096 0.00722278
3108 0.00340925
3120 0.00773598
3132 0.0099921
3144 0.00255995
3156 0.00367533
3168 0.00598736
3180 0.00664558
3192 0.00779076
3204 0.0109369
3216 0.00320856
3228 0.00330282
3240 0.0011185
3252 0.00278904
3264 0.00556754
3276 0.0067474
3288 2.87349e-05
3300 0.00301206
3312 0.00288536
3324 0.00378421
3336 0.00569086
3348 0.00887258
3360 0.00519919
3372 0.00291573
3384 0.00350819
3396 0.00735885
3408 0.00575095
3420 0.00148974
3432 0.00656331
3444 0.00853868
3456 0.00598249
3468 0.00401056
3480 0.00672173
3487 0.0554563

File: BTO_420K_tth.xy
0.000000000000000000e+00 0.000203366
12 0.0121145
24 0.0129101
36 0.00307849
48 0.00319447
60 0.00326574
72 0.00336973
84 0.00372121
96 0.00349662
108 0.00337194
120 0.0032758
132 0.00312082
144 0.00299454
156 0.00275999
168 0.00265502
180 0.0024417
192 0.00236119
204 0.00213325
216 0.00207922
228 0.00207855
240 0.00202593
252 0.00208964
264 0.00225495
276 0.00238473
288 0.00262678
300 0.00221122
312 0.00202362
324 0.00286212
336 0.0510997
348 0.00148252
360 0.004129
372 0.00080884
384 0.000796198
396 0.000908507
408 0.000907943
420 0.0010834
432 0.00143936
444 0.0021546
456 0.00474944
468 0.083632
480 0.0197624
492 0.00319292
504 0.00179814
516 0.00153734
528 0.000325059
540 0.000376329
552 0.000438345
564 0.00167624
576 0.0712174
588 0.00433429
600 0.000990818
612 0.000605826
624 0.00188625
636 0.00157411
648 0.00240059
660 0.0170227
672 0.212034
684 0.00411513
696 0.00151086
708 0.00066988
720 0.0005755
732 0.00119449
744 0.0334372
756 0.00498367
768 0.000940574
780 0.000969355
792 0.00201266
804 0.00536669
816 0.15677
828 0.0167618
840 0.00314317
852 0.0012092
864 0.000871393
876 0.000232713
888 0.000420473
900 0.000223383
912 0.000392369
924 0.00120848
936 0.00723992
948 0.313446
960 0.00416356
972 0.00145892
984 0.00115455
996 0.00547002
1008 0.0337657
1020 0.00115776
1032 0.00156912
1044 0.00590484
1056 0.132921
1068 0.0137516
1080 0.00247048
1092 0.00240303
1104 0.0207488
1116 0.0275506
1128 0.00141898
1140 0.00122195
1152 0.00513711
1164 0.0277296
1176 0.00119922
1188 0.00128087
1200 0.00551362
1212 0.0169273
1224 0.00244672
1236 0.00489423
1248 0.0708802
1260 0.0345545
1272 0.00302107
1284 0.00112898
1296 0.000742917
1308 0.000450086
1320 0.000775518
1332 0.00871784
1344 0.0348322
1356 0.00143677
1368 0.00248136
1380 0.0492753
1392 0.00394669
1404 0.00392713
1416 0.0454014
1428 0.0328322
1440 0.0034145
1452 0.00541161
1464 0.0357049
1476 0.00318932
1488 0.0103415
1500 0.137311
1512 0.0053547
1524 0.00376827
1536 0.0429783
1548 0.00254384
1560 0.00300083
1572 0.107364
1584 0.00308197
1596 0.00119961
1608 0.00105624
1620 0.00184644
1632 0.00678833
1644 0.11582
1656 0.00435735
1668 0.00516564
1680 0.0177036
1692 0.00629001
1704 0.0485579
1716 0.0501191
1728 0.0062621
1740 0.0205277
1752 0.00490025
1764 0.00110165
1776 0.00103187
1788 0.00149741
1800 0.00977057
1812 0.012876
1824 0.00642326
1836 0.0470539
1848 0.00744847
1860 0.00151509
1872 0.000177703
1884 0.00181366
1896 0.0258211
1908 0.00297793
1920 0.00492248
1932 0.0128218
1944 0.00475692
1956 0.068106
1968 0.00604147
1980 0.0148753
1992 0.0124282
2004 0.00756708
2016 0.0518836
2028 0.00408892
2040 0.00520419
2052 0.00535271
2064 0.0293345
2076 0.0250776
2088 0.00290084
2100 0.00205683
2112 0.00555678
2124 0.0236214
2136 0.00560465
2148 0.0187434
2160 0.00522641
2172 0.0229723
2184 0.0095401
2196 0.00420443
2208 0.00453241
2220 0.00749532
2232 0.0245972
2244 0.00418898
2256 0.0152059
2268 0.00596624
2280 0.0314696
2292 0.00226673
2304 0.000605051
2316 0.000574264
2328 0.0117852
2340 0.00197162
2352 0.00846354
2364 0.00681195
2376 0.0486633
2388 0.00719224
2400 0.0132317
2412 0.00477364
2424 0.0170619
2436 0.00483213
2448 0.0114316
2460 0.00994651
2472 0.0420526
2484 0.00438876
2496 0.0026719
2508 0.00773148
2520 0.0248214
2532 0.00438648
2544 0.0045091
2556 0.00440176
2568 0.00583188
2580 0.00860984
2592 0.0037086
2604 0.000707503
2616 0.0016386
2628 0.00961948
2640 0.00880719
2652 0.0270408
2664 0.00230288
2676 0.000453234
2688 0.00129753
2700 0.00287713
2712 0.00853914
2724 0.00794804
2736 0.0259762
2748 0.00423652
2760 0.00586744
2772 0.00979077
2784 0.00672023
2796 0.00639215
2808 0.00431708
2820 0.0099109
2832 0.000545647
2844 0.00198847
2856 0.00802843
2868 0.00390076
2880 0.00481108
2892 0.0122244
2904 0.0111135
2916 0.00842045
2928 0.00337255
2940 0.00486271
2952 0.00379842
2964 0.00344455
2976 0.008004
2988 0.0013086
3000 0.000506573
3012 0.00383507
3024 0.00238957
3036 0.00518788
3048 0.00301277
3060 0.00535687
3072 0.00731083
3084 0.00520372
3096 0.00569368
3108 0.00341404
3120 0.00737462
3132 0.00907883
3144 0.00218744
3156 0.00242182
3168 0.00285159
3180 0.00678122
3192 0.00611549
3204 0.00948132
3216 0.00256339
3228 0.00268871
3240 0.00104907
3252 0.00278346
3264 0.00403128
3276 0.00647843
3288 0.00133021
3300 0.00170014
3312 0.00352037
3324 0.00393818
3336 0.00471422
3348 0.00477788
3360 0.00535341
3372 0.00412506
3384 0.00474464
3396 0.00565911
3408 0.00596957
3420 0.00125574
3432 0.00350148
3444 0.00894053
3456 0.000394957
3468 0.00117787
3480 0.0073063
3487 0.0137895

File: BTO_425K_tth.xy
0.000000000000000000e+00 0.000301793
12 0.0120294
24 0.0128109
36 0.0030653
48 0.00308435
60 0.00323478
72 0.00335655
84 0.00369206
96 0.00351923
108 0.00339211
120 0.0032479
132 0.00318917
144 0.00296339
156 0.00288342
168 0.00274256
180 0.0025898
192 0.00246867
204 0.00236136
216 0.00230577
228 0.00218502
240 0.0022303
252 0.00234888
264 0.00230035
276 0.002535
288 0.00274763
300 0.00237037
312 0.00216171
324 0.00296571
336 0.0496008
348 0.00157699
360 0.00413292
372 0.000899865
384 0.000975186
396 0.000945188
408 0.000991229
420 0.00110006
432 0.00132578
444 0.00215886
456 0.00485765
468 0.0823807
480 0.0195052
492 0.00328521
504 0.00195339
516 0.00170082
528 0.000500197
540 0.000493016
552 0.000627546
564 0.00173129
576 0.0712468
588 0.00428718
600 0.00105617
612 0.00073524
624 0.00202691
636 0.00174531
648 0.0023088
660 0.0169545
672 0.197143
684 0.00440605
696 0.0019327
708 0.00094493
720 0.000932714
732 0.00149026
744 0.0316609
756 0.00503984
768 0.00101065
780 0.00116784
792 0.00207805
804 0.00556058
816 0.151247
828 0.0165709
840 0.00297589
852 0.00126779
864 0.00077316
876 0.000758782
888 0.000658372
900 0.000520728
912 0.000472251
924 0.00147247
936 0.0073307
948 0.318972
960 0.00435889
972 0.00166337
984 0.00110783
996 0.00524787
1008 0.031446
1020 0.00158551
1032 0.00154782
1044 0.00578909
1056 0.129429
1068 0.0132559
1080 0.00245747
1092 0.00232484
1104 0.01974
1116 0.0253391
1128 0.00160114
1140 0.0010507
1152 0.0050302
1164 0.0270404
1176 0.00129378
1188 0.000997291
1200 0.0052023
1212 0.015641
1224 0.00227206
1236 0.00479697
1248 0.0677914
1260 0.0330636
1272 0.00338113
1284 0.00100921
1296 0.000363449
1308 0.000465349
1320 0.00108462
1332 0.00791855
1344 0.0309981
1356 0.00169646
1368 0.00248608
1380 0.051069
1392 0.00360785
1404 0.00338292
1416 0.0414639
1428 0.0297215
1440 0.0031629
1452 0.00513543
1464 0.0332864
1476 0.00274795
1488 0.00962647
1500 0.145147
1512 0.00522483
1524 0.0038171
1536 0.0467058
1548 0.00242823
1560 0.00282061
1572 0.107161
1584 0.00304228
1596 0.000830005
1608 0.000828363
1620 0.00136474
1632 0.00687439
1644 0.117048
1656 0.00433988
1668 0.00499901
1680 0.0164209
1692 0.00592284
1704 0.0451892
1716 0.0440655
1728 0.00574577
1740 0.0211955
1752 0.00452411
1764 0.00124461
1776 0.000651204
1788 0.00117229
1800 0.00968688
1812 0.0117301
1824 0.00631615
1836 0.0525542
1848 0.00706529
1860 0.000928294
1872 0.000379417
1884 0.000896015
1896 0.0249744
1908 0.00265655
1920 0.00428628
1932 0.011379
1944 0.00443544
1956 0.0702907
1968 0.00571107
1980 0.0140885
1992 0.0110746
2004 0.00713713
2016 0.0527098
2028 0.00382475
2040 0.00523751
2052 0.00508303
2064 0.027097
2076 0.0222903
2088 0.00290332
2100 0.00199006
2112 0.0050588
2124 0.0278354
2136 0.0050785
2148 0.0188915
2160 0.00495639
2172 0.0210113
2184 0.00859964
2196 0.00456852
2208 0.00423861
2220 0.00698338
2232 0.0222427
2244 0.00374387
2256 0.0150588
2268 0.00506928
2280 0.0344705
2292 0.00234399
2304 0.000232357
2316 0.000824463
2328 0.0124792
2340 0.00222138
2352 0.00974811
2364 0.00664721
2376 0.0515311
2388 0.00716491
2400 0.0148483
2412 0.00485104
2424 0.0194163
2436 0.00487762
2448 0.0128029
2460 0.00937904
2472 0.0457339
2484 0.00488499
2496 0.00291995
2508 0.00763161
2520 0.0240105
2532 0.00395078
2544 0.00435677
2556 0.00510453
2568 0.00549766
2580 0.00940662
2592 0.00357674
2604 0.00133601
2616 0.00150183
2628 0.0101956
2640 0.00780356
2652 0.0269907
2664 0.0014817
2676 0.000676623
2688 0.000616025
2700 0.00228347
2712 0.00897147
2724 0.00688115
2736 0.0267463
2748 0.00408624
2760 0.00448046
2772 0.00999517
2784 0.00529787
2796 0.00735545
2808 0.00342691
2820 0.00876088
2832 0.00122198
2844 0.00138086
2856 0.00841981
2868 0.00295034
2880 0.00557742
2892 0.0106387
2904 0.00888644
2916 0.00906606
2928 0.00321116
2940 0.00475355
2952 0.00332561
2964 0.00222615
2976 0.00943819
2988 0.000696812
3000 0.00136112
3012 0.00415953
3024 0.00341138
3036 0.00667482
3048 0.00422237
3060 0.00568429
3072 0.00906744
3084 0.00445328
3096 0.00576905
3108 0.00512291
3120 0.00620015
3132 0.00871656
3144 0.00201623
3156 0.00272825
3168 0.00447373
3180 0.00580908
3192 0.0072439
3204 0.00963885
3216 0.00370603
3228 0.000511127
3240 0.00125323
3252 0.0033922
3264 0.00418328
3276 0.00671875
3288 0.00175213
3300 0.0033786
3312 0.00282924
3324 0.00374361
3336 0.00728466
3348 0.00471461
3360 0.00764248
3372 0.00241864
3384 0.00442157
3396 0.00769033
3408 0.00310532
3420 0.00152396
3432 0.00333383
3444 0.00858462
3456 0.00065511
3468 0.00540285
3480 0.015203
3487 0.0117931